"Time (s)","Linear Acceleration x (m/s^2)","Linear Acceleration y (m/s^2)","Linear Acceleration z (m/s^2)"
9.819340900E-2,2.300000042E-1,-4.099999964E-1,1.019999981E-1
1.031811020E-1,2.189999968E-1,-4.639999866E-1,1.809999943E-1
1.081687940E-1,1.400000006E-1,-4.300000072E-1,1.640000045E-1
1.131562740E-1,1.220000014E-1,-3.899999857E-1,1.309999973E-1
1.181439650E-1,2.099999972E-2,-3.269999921E-1,7.999999821E-2
1.231315820E-1,-7.299999893E-2,-2.709999979E-1,4.500000179E-2
1.281193000E-1,-2.569999993E-1,-1.819999963E-1,-1.260000020E-1
1.331069930E-1,-2.689999938E-1,-1.080000028E-1,-2.599999905E-1
1.380944700E-1,-3.050000072E-1,-7.999999821E-2,-3.510000110E-1
1.430821610E-1,-2.840000093E-1,-8.500000089E-2,-3.810000122E-1
1.480698530E-1,-2.619999945E-1,-1.180000007E-1,-4.810000062E-1
1.530575690E-1,-3.089999855E-1,-1.379999965E-1,-6.100000143E-1
1.580451870E-1,-2.800000012E-1,-1.550000012E-1,-7.260000110E-1
1.630328770E-1,-1.110000014E-1,-1.620000005E-1,-8.289999962E-1
1.680203450E-1,-1.609999985E-1,-1.700000018E-1,-9.340000153E-1
1.730080350E-1,-1.309999973E-1,-1.469999999E-1,-9.340000153E-1
1.779957270E-1,-8.699999750E-2,-1.120000035E-1,-8.640000224E-1
1.829833400E-1,-1.790000051E-1,-8.399999887E-2,-7.559999824E-1
1.879710300E-1,-2.060000002E-1,-4.199999943E-2,-5.950000286E-1
1.929584930E-1,-2.840000093E-1,9.999999776E-3,-4.690000117E-1
1.979461980E-1,-1.829999983E-1,4.800000042E-2,-3.880000114E-1
2.029338900E-1,-4.500000179E-2,5.700000003E-2,-3.300000131E-1
2.079215820E-1,3.999999911E-2,9.399999678E-2,-3.589999974E-1
2.129091940E-1,1.700000018E-1,1.150000021E-1,-3.980000019E-1
2.178968840E-1,2.450000048E-1,1.319999993E-1,-3.650000095E-1
2.228845760E-1,2.669999897E-1,1.500000060E-1,-2.989999950E-1
2.278720540E-1,2.169999927E-1,1.539999992E-1,-1.700000018E-1
2.328597440E-1,1.700000018E-1,1.350000054E-1,-1.400000043E-2
2.378473620E-1,-2.199999988E-1,-8.900000155E-2,-1.070000008E-1
2.428350760E-1,-1.350000054E-1,3.400000185E-2,1.759999990E-1
2.478227680E-1,-5.799999833E-2,1.860000044E-1,3.319999874E-1
2.528104800E-1,1.190000027E-1,3.269999921E-1,4.359999895E-1
2.577979430E-1,2.220000029E-1,3.799999952E-1,3.970000148E-1
2.627856340E-1,1.749999970E-1,3.100000024E-1,2.099999934E-1
2.677733460E-1,9.399999678E-2,1.979999989E-1,-1.000000047E-3
2.727609630E-1,8.699999750E-2,1.239999980E-1,-3.700000048E-2
2.777486540E-1,1.250000000E-1,1.030000001E-1,1.070000008E-1
2.827361360E-1,3.999999911E-2,1.010000035E-1,2.290000021E-1
2.877238260E-1,-3.999999911E-2,8.500000089E-2,3.499999940E-1
2.927115050E-1,-1.410000026E-1,3.099999949E-2,4.830000103E-1
2.976991970E-1,-1.550000012E-1,-2.800000086E-2,6.259999871E-1
3.026868150E-1,-2.419999987E-1,-5.999999866E-2,6.539999843E-1
3.076744860E-1,-2.800000012E-1,-6.400000304E-2,6.240000129E-1
3.126621780E-1,-2.949999869E-1,-2.199999988E-2,5.820000172E-1
3.176496420E-1,-1.650000066E-1,4.000000190E-3,5.320000052E-1
3.226373510E-1,-7.599999756E-2,5.099999905E-2,4.639999866E-1
3.276250430E-1,-1.239999980E-1,7.500000298E-2,3.880000114E-1
3.326126370E-1,-2.179999948E-1,7.900000364E-2,2.700000107E-1
3.376003270E-1,-2.910000086E-1,5.999999866E-2,1.400000006E-1
3.425880190E-1,-3.269999921E-1,7.800000161E-2,1.600000076E-2
3.475754730E-1,-2.689999938E-1,9.700000286E-2,-7.599999756E-2
3.525631630E-1,-1.770000011E-1,8.900000155E-2,-9.600000083E-2
3.575508560E-1,-6.700000167E-2,5.999999866E-2,-2.999999933E-2
3.625384730E-1,-4.399999976E-2,6.899999827E-2,1.430000067E-1
3.675261630E-1,-1.270000041E-1,9.899999946E-2,3.880000114E-1
3.725138660E-1,-1.449999958E-1,1.129999980E-1,5.979999900E-1
3.775013290E-1,-1.049999967E-1,1.099999994E-1,7.139999866E-1
3.824890190E-1,-4.100000113E-2,1.070000008E-1,7.450000048E-1
3.874767260E-1,2.000000095E-3,1.080000028E-1,7.089999914E-1
3.924643430E-1,-2.199999988E-2,1.129999980E-1,6.840000153E-1
3.974520340E-1,-5.999999866E-2,1.120000035E-1,6.299999952E-1
4.024397260E-1,-7.599999756E-2,1.120000035E-1,5.989999771E-1
4.074271890E-1,-5.099999905E-2,9.700000286E-2,5.619999766E-1
4.124148800E-1,-5.799999833E-2,6.800000370E-2,5.009999871E-1
4.174025620E-1,-7.699999958E-2,5.600000173E-2,5.040000081E-1
4.223902540E-1,-2.169999927E-1,1.270000041E-1,4.699999988E-1
4.273778720E-1,-2.540000081E-1,1.749999970E-1,3.759999871E-1
4.323655860E-1,6.199999899E-2,1.469999999E-1,4.099999964E-1
4.373532780E-1,1.239999980E-1,6.400000304E-2,2.240000069E-1
4.423407420E-1,1.499999966E-2,-1.300000027E-2,5.900000036E-2
4.473284320E-1,-8.799999952E-2,-9.300000221E-2,-2.700000070E-2
4.523161250E-1,-9.899999946E-2,-1.080000028E-1,-4.600000009E-2
4.573037420E-1,-1.019999981E-1,-9.099999815E-2,-5.000000075E-2
4.622914180E-1,-8.900000155E-2,-2.300000004E-2,-3.599999845E-2
4.672791110E-1,-2.400000021E-2,4.199999943E-2,2.600000054E-2
4.722668030E-1,8.999999613E-3,6.800000370E-2,9.300000221E-2
4.772542800E-1,-7.199999690E-2,7.000000030E-2,1.379999965E-1
4.822419710E-1,-1.729999930E-1,3.999999911E-2,2.020000070E-1
4.872296630E-1,-2.649999857E-1,1.099999994E-2,3.050000072E-1
4.922172750E-1,-3.549999893E-1,-1.300000027E-2,3.670000136E-1
4.972049650E-1,-4.429999888E-1,-4.699999839E-2,4.120000005E-1
5.021926570E-1,-4.850000143E-1,-7.800000161E-2,4.390000105E-1
5.071801310E-1,-4.779999852E-1,-1.159999967E-1,4.370000064E-1
5.121678210E-1,-3.799999952E-1,-1.500000060E-1,4.760000110E-1
5.171555130E-1,-3.079999983E-1,-1.749999970E-1,5.339999795E-1
5.221432540E-1,-2.669999897E-1,-2.010000050E-1,5.569999814E-1
5.271308710E-1,-2.140000015E-1,-2.070000023E-1,5.680000186E-1
5.321185610E-1,-1.439999938E-1,-2.339999974E-1,5.559999943E-1
5.371060110E-1,-3.999999911E-2,-2.469999939E-1,5.749999881E-1
5.420937010E-1,2.400000021E-2,-2.380000055E-1,5.860000253E-1
5.470813940E-1,6.899999827E-2,-2.399999946E-1,6.280000210E-1
5.520690660E-1,1.319999993E-1,-2.430000007E-1,6.359999776E-1
5.570566830E-1,1.720000058E-1,-2.349999994E-1,5.400000215E-1
5.620443740E-1,2.259999961E-1,-2.240000069E-1,3.910000026E-1
5.670320760E-1,2.860000134E-1,-2.479999959E-1,1.580000073E-1
5.720197680E-1,3.260000050E-1,-2.560000122E-1,-1.030000001E-1
5.770074560E-1,3.199999928E-1,-2.409999967E-1,-3.659999967E-1
5.819949190E-1,2.540000081E-1,-1.949999928E-1,-6.240000129E-1
5.869825330E-1,2.029999942E-1,-1.360000074E-1,-8.820000291E-1
5.919702250E-1,1.780000031E-1,-8.399999887E-2,-1.065999985E0
5.969579170E-1,1.350000054E-1,-5.999999866E-2,-1.199000001E0
6.019453810E-1,7.500000298E-2,-2.500000037E-2,-1.319000006E0
6.069330710E-1,4.800000042E-2,2.500000037E-2,-1.444000006E0
6.119207630E-1,4.800000042E-2,5.700000003E-2,-1.559000015E0
6.169084560E-1,4.600000009E-2,9.099999815E-2,-1.631999969E0
6.218960730E-1,6.599999964E-2,1.260000020E-1,-1.679000020E0
6.268837630E-1,7.900000364E-2,1.640000045E-1,-1.590000033E0
6.318714610E-1,7.100000232E-2,1.930000037E-1,-1.411999941E0
6.368591530E-1,4.300000146E-2,2.290000021E-1,-1.146999955E0
6.418466170E-1,5.400000140E-2,2.500000000E-1,-9.060000181E-1
6.468343160E-1,6.400000304E-2,2.440000027E-1,-6.330000162E-1
6.518220080E-1,1.049999967E-1,1.759999990E-1,-3.240000010E-1
6.568096020E-1,1.260000020E-1,4.899999872E-2,2.700000070E-2
6.617972920E-1,1.480000019E-1,-8.100000024E-2,2.569999993E-1
6.667849840E-1,1.700000018E-1,-1.930000037E-1,4.199999869E-1
6.717726630E-1,2.680000067E-1,-2.750000060E-1,5.770000219E-1
6.767603550E-1,2.660000026E-1,-3.440000117E-1,6.710000038E-1
6.817478320E-1,2.300000004E-2,-3.499999940E-1,7.599999905E-1
6.867355230E-1,9.499999881E-2,-3.829999864E-1,8.339999914E-1
6.917231400E-1,2.409999967E-1,-3.720000088E-1,7.960000038E-1
6.967108160E-1,4.050000012E-1,-3.680000007E-1,6.710000038E-1
7.016985090E-1,4.699999988E-1,-3.540000021E-1,5.310000181E-1
7.066862010E-1,5.210000277E-1,-3.810000122E-1,4.149999917E-1
7.116738980E-1,4.819999933E-1,-4.020000100E-1,3.050000072E-1
7.166613620E-1,4.469999969E-1,-4.129999876E-1,1.480000019E-1
7.216490520E-1,4.169999957E-1,-3.799999952E-1,7.000000216E-3
7.266367310E-1,4.499999881E-1,-2.870000005E-1,-1.289999932E-1
7.316244230E-1,5.529999733E-1,-1.550000012E-1,-1.570000052E-1
7.366120400E-1,4.499999881E-1,-1.280000061E-1,-4.699999988E-1
7.415997310E-1,3.560000062E-1,-6.800000370E-2,-7.269999981E-1
7.465874230E-1,1.969999969E-1,-3.500000015E-2,-9.509999752E-1
7.515748870E-1,5.600000173E-2,0.000000000E0,-1.118999958E0
7.565625910E-1,5.999999866E-2,7.800000161E-2,-1.159000039E0
7.615502830E-1,1.420000046E-1,1.469999999E-1,-1.139999986E0
7.665379750E-1,2.129999995E-1,2.419999987E-1,-1.133999944E0
7.715256490E-1,2.300000042E-1,3.160000145E-1,-1.111999989E0
7.765132660E-1,1.640000045E-1,3.659999967E-1,-1.070000052E0
7.815009570E-1,6.599999964E-2,4.020000100E-1,-9.900000095E-1
7.864884200E-1,-1.049999967E-1,4.110000134E-1,-8.930000067E-1
7.914761100E-1,-1.550000012E-1,3.959999979E-1,-7.639999986E-1
7.964638030E-1,-1.030000001E-1,3.740000129E-1,-6.529999971E-1
8.014515000E-1,-2.500000037E-2,3.659999967E-1,-5.279999971E-1
8.064391920E-1,3.299999982E-2,3.429999948E-1,-3.630000055E-1
8.114268100E-1,4.699999839E-2,3.300000131E-1,-1.490000039E-1
8.164145190E-1,7.599999756E-2,3.210000098E-1,8.100000024E-2
8.214022110E-1,7.999999821E-2,2.820000052E-1,2.739999890E-1
8.263896700E-1,4.300000146E-2,2.119999975E-1,3.549999893E-1
8.313773600E-1,-1.000000047E-3,1.180000007E-1,3.370000124E-1
8.363650580E-1,-8.999999613E-3,4.199999943E-2,2.310000062E-1
8.413527500E-1,3.099999949E-2,1.499999966E-2,1.120000035E-1
8.463403670E-1,1.120000035E-1,2.000000095E-3,4.000000190E-3
8.513280390E-1,9.399999678E-2,1.300000027E-2,-2.099999972E-2
8.563157310E-1,5.600000173E-2,1.799999923E-2,-3.799999878E-2
8.613034230E-1,3.900000080E-2,2.199999988E-2,-7.000000216E-3
8.662908870E-1,-1.600000076E-2,5.200000107E-2,1.040000021E-1
8.712785770E-1,-8.699999750E-2,9.300000221E-2,1.889999956E-1
8.762662690E-1,-1.560000032E-1,1.239999980E-1,2.280000001E-1
8.812539760E-1,-9.200000018E-2,1.410000026E-1,3.100000024E-1
8.862416680E-1,8.000000380E-3,1.379999965E-1,3.919999897E-1
8.912293600E-1,6.199999899E-2,1.430000067E-1,4.070000052E-1
8.962169880E-1,7.800000161E-2,1.539999992E-1,4.059999883E-1
9.012046780E-1,8.500000089E-2,1.870000064E-1,3.899999857E-1
9.061923700E-1,7.800000161E-2,2.140000015E-1,4.480000138E-1
9.111798380E-1,5.999999866E-2,2.150000036E-1,5.040000081E-1
9.161675280E-1,1.200000010E-2,2.140000015E-1,5.519999862E-1
9.211552210E-1,4.999999888E-3,1.870000064E-1,6.159999967E-1
9.261428990E-1,-7.299999893E-2,1.679999977E-1,6.520000100E-1
9.311305910E-1,-4.100000113E-2,1.169999987E-1,6.510000229E-1
9.361182090E-1,1.150000021E-1,6.100000069E-2,7.260000110E-1
9.411059090E-1,1.920000017E-1,1.600000076E-2,6.840000153E-1
9.460936010E-1,1.589999944E-1,-1.000000047E-3,6.299999952E-1
9.510812940E-1,1.389999986E-1,-1.799999923E-2,5.960000157E-1
9.560687710E-1,1.720000058E-1,1.899999939E-2,6.280000210E-1
9.610564610E-1,1.870000064E-1,3.599999845E-2,6.949999928E-1
9.660441490E-1,1.589999944E-1,4.000000190E-3,7.310000062E-1
9.710318410E-1,1.469999999E-1,7.000000216E-3,7.279999852E-1
9.760195330E-1,1.589999944E-1,4.199999943E-2,7.129999995E-1
9.810072450E-1,1.729999930E-1,1.439999938E-1,6.790000200E-1
9.859949370E-1,1.019999981E-1,1.940000057E-1,5.849999785E-1
9.909825540E-1,3.200000152E-2,1.909999996E-1,5.180000067E-1
9.959702650E-1,-1.270000041E-1,9.000000358E-2,3.840000033E-1
1.000957957E0,-2.500000037E-2,2.199999988E-2,2.779999971E-1
1.005945421E0,2.590000033E-1,1.379999965E-1,3.160000145E-1
1.010933125E0,2.280000001E-1,2.899999917E-1,3.950000107E-1
1.015920817E0,1.169999987E-1,3.280000091E-1,4.399999976E-1
1.020908510E0,-2.999999933E-2,3.030000031E-1,4.519999921E-1
1.025896122E0,-2.919999957E-1,1.560000032E-1,4.550000131E-1
1.030883812E0,-2.179999948E-1,1.630000025E-1,4.830000103E-1
1.035871582E0,-7.299999893E-2,2.759999931E-1,5.009999871E-1
1.040859199E0,-4.500000179E-2,3.160000145E-1,4.289999902E-1
1.045846889E0,-1.140000001E-1,2.489999980E-1,2.989999950E-1
1.050834582E0,-2.160000056E-1,1.509999931E-1,1.360000074E-1
1.055822045E0,-2.049999982E-1,7.699999958E-2,5.700000003E-2
1.060809735E0,-1.180000007E-1,5.200000107E-2,8.600000292E-2
1.065797428E0,-1.799999923E-2,1.999999955E-2,1.120000035E-1
1.070785120E0,5.999999866E-2,-5.200000107E-2,1.930000037E-1
1.075772738E0,1.400000006E-1,-8.699999750E-2,1.780000031E-1
1.080760462E0,2.259999961E-1,-1.209999993E-1,1.480000019E-1
1.085748154E0,2.960000038E-1,-2.409999967E-1,2.080000043E-1
1.090735831E0,3.109999895E-1,-4.009999931E-1,3.459999859E-1
1.095723295E0,3.619999886E-1,-5.370000005E-1,5.180000067E-1
1.100710985E0,4.140000045E-1,-6.370000243E-1,6.389999986E-1
1.105698678E0,4.979999959E-1,-7.049999833E-1,7.139999866E-1
1.110686370E0,5.609999895E-1,-7.630000114E-1,7.340000272E-1
1.115674062E0,5.669999719E-1,-7.689999938E-1,6.880000234E-1
1.120661760E0,5.109999776E-1,-7.450000048E-1,6.959999800E-1
1.125649452E0,3.819999993E-1,-7.110000253E-1,6.759999990E-1
1.130637139E0,3.070000112E-1,-6.930000186E-1,5.600000024E-1
1.135624757E0,3.840000033E-1,-6.219999790E-1,4.799999893E-1
1.140612447E0,4.120000005E-1,-4.300000072E-1,3.459999859E-1
1.145600158E0,3.179999888E-1,-2.389999926E-1,1.330000013E-1
1.150587851E0,2.220000029E-1,-7.599999756E-2,-1.969999969E-1
1.155575285E0,1.509999931E-1,2.300000004E-2,-5.389999747E-1
1.160562975E0,8.200000226E-2,5.200000107E-2,-8.220000267E-1
1.165550653E0,2.700000070E-2,6.899999827E-2,-1.024999976E0
1.170538345E0,-2.099999972E-2,7.199999690E-2,-1.208999991E0
1.175526037E0,-9.700000286E-2,9.799999744E-2,-1.409000039E0
1.180513735E0,-2.980000079E-1,1.159999967E-1,-1.550999999E0
1.185501427E0,-5.070000291E-1,7.999999821E-2,-1.601999998E0
1.190489100E0,-7.839999795E-1,-6.800000370E-2,-1.659000039E0
1.195476718E0,-4.219999909E-1,4.699999839E-2,-1.651000023E0
1.200464408E0,-2.039999962E-1,8.699999750E-2,-1.600000024E0
1.205452085E0,-1.169999987E-1,9.399999678E-2,-1.496999979E0
1.210439778E0,-1.850000024E-1,2.199999988E-2,-1.398000002E0
1.215427470E0,4.199999943E-2,8.799999952E-2,-1.294999957E0
1.220414929E0,2.080000043E-1,9.700000286E-2,-1.200000048E0
1.225402619E0,1.969999969E-1,7.000000030E-2,-1.009999990E0
1.230390311E0,5.200000107E-2,2.300000004E-2,-7.639999986E-1
1.235378000E0,-1.099999994E-2,-1.159999967E-1,-5.310000181E-1
1.240365692E0,-5.499999970E-2,-3.569999933E-1,-3.880000114E-1
1.245353309E0,3.200000152E-2,-8.320000172E-1,-4.860000014E-1
1.250340980E0,-1.770000011E-1,-1.054000020E0,-5.350000262E-1
1.255328672E0,-7.020000219E-1,-4.140000045E-1,1.879999936E-1
1.260316364E0,-5.099999905E-1,3.939999938E-1,8.500000089E-2
1.265304076E0,-3.519999981E-1,5.410000086E-1,-9.200000018E-2
1.270291768E0,-2.440000027E-1,3.770000041E-1,9.200000018E-2
1.275279246E0,-3.170000017E-1,2.000000030E-1,2.119999975E-1
1.280266937E0,-3.510000110E-1,1.140000001E-1,-2.700000070E-2
1.285254629E0,-6.470000148E-1,-2.000000095E-3,-4.140000045E-1
1.290242316E0,-3.070000112E-1,-1.120000035E-1,-5.070000291E-1
1.295230009E0,1.500000060E-1,-9.000000358E-2,-8.399999887E-2
1.300217701E0,9.099999815E-2,-1.999999955E-2,1.829999983E-1
1.305205412E0,-1.669999957E-1,2.000000095E-3,5.200000107E-2
1.310193030E0,-3.389999866E-1,-7.000000216E-3,-2.829999924E-1
1.315180720E0,-1.036999941E0,1.369999945E-1,-6.710000038E-1
1.320168412E0,-8.970000148E-1,-9.600000083E-2,-7.699999809E-1
1.325156105E0,-8.320000172E-1,-4.480000138E-1,-9.840000272E-1
1.330143797E0,-8.840000033E-1,-8.009999990E-1,-1.238999963E0
1.335131504E0,-8.529999852E-1,-1.047000051E0,-1.373999953E0
1.340119197E0,-1.006000042E0,-1.023000002E0,-1.271999955E0
1.345106890E0,-6.090000272E-1,-8.849999905E-1,-8.619999886E-1
1.350094582E0,-2.500000000E-1,-6.140000224E-1,-4.499999881E-1
1.355082044E0,7.900000364E-2,-2.689999938E-1,-8.799999952E-2
1.360069734E0,3.030000031E-1,6.499999762E-2,3.269999921E-1
1.365057442E0,2.189999968E-1,3.109999895E-1,5.970000029E-1
1.370045134E0,4.999999888E-3,4.420000017E-1,6.800000072E-1
1.375032826E0,-1.799999923E-2,4.720000029E-1,7.110000253E-1
1.380020552E0,8.600000292E-2,3.849999905E-1,6.589999795E-1
1.385008245E0,0.000000000E0,2.989999950E-1,6.029999852E-1
1.389995862E0,-1.180000007E-1,2.080000043E-1,4.979999959E-1
1.394983568E0,-2.129999995E-1,2.090000063E-1,3.959999979E-1
1.399971260E0,-1.609999985E-1,2.840000093E-1,3.379999995E-1
1.404958956E0,-2.899999917E-2,4.180000126E-1,3.120000064E-1
1.409946648E0,4.999999888E-3,5.360000134E-1,2.169999927E-1
1.414934341E0,2.899999917E-2,6.389999986E-1,-4.199999943E-2
1.419922067E0,-3.200000152E-2,7.599999905E-1,-2.090000063E-1
1.424909531E0,-1.209999993E-1,8.439999819E-1,-2.879999876E-1
1.429897221E0,-1.809999943E-1,9.330000281E-1,-1.459999979E-1
1.434884942E0,-1.309999973E-1,9.729999900E-1,4.899999872E-2
1.439872635E0,3.599999845E-2,9.520000219E-1,2.689999938E-1
1.444860327E0,2.489999980E-1,9.150000215E-1,5.440000296E-1
1.449848009E0,3.899999857E-1,7.379999757E-1,6.349999905E-1
1.454835702E0,3.289999962E-1,5.210000277E-1,6.990000010E-1
1.459823394E0,2.579999864E-1,3.899999857E-1,7.739999890E-1
1.464811016E0,6.800000370E-2,1.640000045E-1,6.250000000E-1
1.469798707E0,-9.799999744E-2,-1.280000061E-1,6.050000191E-1
1.474786399E0,-4.189999998E-1,-3.230000138E-1,4.670000076E-1
1.479774105E0,-6.399999857E-1,-2.980000079E-1,2.300000004E-2
1.484761798E0,-6.280000210E-1,-2.960000038E-1,1.829999983E-1
1.489749490E0,-4.779999852E-1,-2.899999917E-1,6.039999723E-1
1.494737168E0,-3.880000114E-1,-2.739999890E-1,8.790000081E-1
1.499724861E0,-3.709999919E-1,-2.060000002E-1,1.016000032E0
1.504712554E0,-2.649999857E-1,-1.030000001E-1,1.098000050E0
1.509700232E0,-2.249999940E-1,5.600000173E-2,1.210000038E0
1.514687924E0,-2.220000029E-1,1.770000011E-1,1.199000001E0
1.519675386E0,-2.709999979E-1,2.319999933E-1,1.250000000E0
1.524663076E0,-3.070000112E-1,2.579999864E-1,1.263000011E0
1.529650769E0,-3.510000110E-1,2.349999994E-1,1.231999993E0
1.534638461E0,-1.889999956E-1,2.430000007E-1,1.241999984E0
1.539626149E0,-1.889999956E-1,1.490000039E-1,1.292999983E0
1.544613842E0,-1.340000033E-1,1.300000027E-2,1.338000059E0
1.549601534E0,-1.469999999E-1,-1.239999980E-1,1.307999969E0
1.554589136E0,-3.700000048E-2,-2.119999975E-1,1.340999961E0
1.559576827E0,-1.999999955E-2,-2.919999957E-1,1.179999948E0
1.564564596E0,1.190000027E-1,-2.660000026E-1,9.840000272E-1
1.569552213E0,1.700000018E-1,-2.319999933E-1,6.420000196E-1
1.574539904E0,2.329999954E-1,-1.650000066E-1,3.260000050E-1
1.579527596E0,3.000000119E-1,-1.449999958E-1,1.230000034E-1
1.584515302E0,3.549999893E-1,-1.459999979E-1,2.000000095E-3
1.589502995E0,3.700000048E-1,-2.319999933E-1,-1.560000032E-1
1.594490668E0,4.659999907E-1,-2.660000026E-1,-2.000000095E-3
1.599478360E0,5.820000172E-1,-2.049999982E-1,1.909999996E-1
1.604466053E0,5.609999895E-1,-1.469999999E-1,2.790000141E-1
1.609453496E0,4.889999926E-1,-1.609999985E-1,4.029999971E-1
1.614441186E0,3.889999986E-1,-2.479999959E-1,5.099999905E-1
1.619428879E0,2.129999995E-1,-3.490000069E-1,5.379999876E-1
1.624416561E0,1.420000046E-1,-4.650000036E-1,5.699999928E-1
1.629404253E0,6.700000167E-2,-5.329999924E-1,5.210000277E-1
1.634391937E0,1.749999970E-1,-5.509999990E-1,5.070000291E-1
1.639379629E0,3.330000043E-1,-5.040000081E-1,4.569999874E-1
1.644367321E0,8.370000124E-1,-5.120000243E-1,3.619999886E-1
1.649354994E0,8.339999914E-1,-3.310000002E-1,2.820000052E-1
1.654342687E0,4.639999866E-1,-2.169999927E-1,4.510000050E-1
1.659330366E0,3.639999926E-1,-1.469999999E-1,2.249999940E-1
1.664318059E0,2.070000023E-1,-1.129999980E-1,-3.079999983E-1
1.669305751E0,2.700000070E-2,-6.599999964E-2,-7.340000272E-1
1.674293433E0,-1.340000033E-1,-4.300000146E-2,-9.570000172E-1
1.679281125E0,-1.570000052E-1,-1.300000027E-2,-1.057000041E0
1.684268817E0,-1.640000045E-1,6.700000167E-2,-1.192000031E0
1.689256433E0,-4.899999872E-2,1.469999999E-1,-1.398000002E0
1.694244124E0,-6.800000370E-2,2.399999946E-1,-1.557000041E0
1.699231816E0,-5.600000173E-2,3.030000031E-1,-1.631999969E0
1.704219508E0,-1.230000034E-1,3.210000098E-1,-1.666000009E0
1.709207201E0,-2.520000041E-1,3.540000021E-1,-1.646999955E0
1.714194874E0,-3.770000041E-1,3.700000048E-1,-1.550999999E0
1.719182337E0,-4.609999955E-1,3.650000095E-1,-1.338000059E0
1.724170259E0,-4.930000007E-1,3.389999866E-1,-1.149000049E0
1.729157967E0,-4.499999881E-1,2.730000019E-1,-9.649999738E-1
1.734145659E0,-4.000000060E-1,2.129999995E-1,-7.720000148E-1
1.739133121E0,-3.030000031E-1,1.589999944E-1,-5.429999828E-1
1.744121042E0,-2.800000012E-1,1.080000028E-1,-3.840000033E-1
1.749108736E0,-2.319999933E-1,1.899999939E-2,-2.119999975E-1
1.754096198E0,-2.430000007E-1,-7.199999690E-2,-2.199999988E-2
1.759084124E0,-3.339999914E-1,-1.899999976E-1,2.140000015E-1
1.764071818E0,3.799999878E-2,-2.949999869E-1,3.219999969E-1
1.769059280E0,4.189999998E-1,-4.199999869E-1,3.400000036E-1
1.774046970E0,4.469999969E-1,-5.220000148E-1,5.360000134E-1
1.779034662E0,4.449999928E-1,-5.780000091E-1,4.580000043E-1
1.784022355E0,5.189999938E-1,-6.309999824E-1,2.280000001E-1
1.789010013E0,5.410000086E-1,-6.159999967E-1,-8.000000380E-3
1.793997705E0,6.669999957E-1,-5.329999924E-1,-1.500000060E-1
1.798985389E0,7.500000000E-1,-4.090000093E-1,-3.379999995E-1
1.803973081E0,3.560000062E-1,-1.790000051E-1,-5.230000019E-1
1.808960773E0,3.370000124E-1,-2.090000063E-1,-5.799999833E-1
1.813948485E0,5.389999747E-1,-3.930000067E-1,-7.509999871E-1
1.818936178E0,5.419999957E-1,-4.769999981E-1,-9.679999948E-1
1.823923871E0,5.389999747E-1,-4.469999969E-1,-1.194000006E0
1.828911568E0,3.700000048E-1,-1.829999983E-1,-1.253999949E0
1.833899260E0,2.790000141E-1,5.799999833E-2,-1.041000009E0
1.838886971E0,2.879999876E-1,2.049999982E-1,-7.659999728E-1
1.843874663E0,2.210000008E-1,3.019999862E-1,-6.029999852E-1
1.848862355E0,1.800000072E-1,3.240000010E-1,-5.509999990E-1
1.853849943E0,1.190000027E-1,2.680000067E-1,-5.289999843E-1
1.858837633E0,2.199999988E-2,2.150000036E-1,-5.109999776E-1
1.863825403E0,1.999999955E-2,1.080000028E-1,-5.260000229E-1
1.868813006E0,-2.000000095E-3,3.900000080E-2,-5.049999952E-1
1.873800696E0,-8.600000292E-2,1.080000028E-1,-4.709999859E-1
1.878788389E0,-1.570000052E-1,1.609999985E-1,-3.379999995E-1
1.883776081E0,-1.600000076E-2,1.490000039E-1,-2.949999869E-1
1.888763850E0,1.529999971E-1,1.850000024E-1,-3.510000110E-1
1.893751549E0,2.199999988E-1,2.380000055E-1,-5.009999871E-1
1.898739241E0,1.800000072E-1,2.779999971E-1,-6.269999743E-1
1.903726933E0,2.500000037E-2,3.300000131E-1,-6.529999971E-1
1.908714564E0,-7.699999958E-2,4.550000131E-1,-5.199999809E-1
1.913702254E0,-1.480000019E-1,5.500000119E-1,-3.659999967E-1
1.918689946E0,-1.299999952E-1,6.079999804E-1,-2.049999982E-1
1.923677624E0,-1.360000074E-1,5.839999914E-1,-9.999999776E-3
1.928665316E0,-1.570000052E-1,5.130000114E-1,1.689999998E-1
1.933653008E0,-8.900000155E-2,3.630000055E-1,2.419999987E-1
1.938640701E0,-1.300000027E-2,1.599999964E-1,2.010000050E-1
1.943628394E0,-1.049999967E-1,6.800000370E-2,1.899999976E-1
1.948616087E0,-1.739999950E-1,9.300000221E-2,2.590000033E-1
1.953603767E0,-5.299999937E-2,1.870000064E-1,2.300000042E-1
1.958591459E0,-6.700000167E-2,3.339999914E-1,9.399999678E-2
1.963579151E0,-1.550000012E-1,3.700000048E-1,-1.309999973E-1
1.968566824E0,-1.990000010E-1,2.879999876E-1,-2.389999926E-1
1.973554516E0,-3.330000043E-1,2.440000027E-1,-2.142999887E0
1.978542188E0,-7.239999771E-1,4.420000017E-1,-6.489999890E-1
1.983529880E0,-4.160000086E-1,3.129999936E-1,2.167000055E0
1.988517572E0,-6.719999909E-1,2.700000107E-1,2.059000015E0
1.993505283E0,-6.140000224E-1,1.659999937E-1,2.341000080E0
1.998492975E0,-2.590000033E-1,6.400000304E-2,2.148000002E0
2.003480668E0,-4.500000179E-2,0.000000000E0,1.532999992E0
2.008468381E0,-1.999999955E-2,4.500000179E-2,1.149000049E0
2.013456074E0,2.500000037E-2,1.340000033E-1,8.980000019E-1
2.018443767E0,1.330000013E-1,2.599999905E-1,6.269999743E-1
2.023431454E0,2.630000114E-1,3.319999874E-1,2.870000005E-1
2.028419146E0,4.099999964E-1,3.409999907E-1,3.400000185E-2
2.033406838E0,5.460000038E-1,2.779999971E-1,-1.500000060E-1
2.038394530E0,6.169999838E-1,2.029999942E-1,-2.849999964E-1
2.043382222E0,5.619999766E-1,1.319999993E-1,-3.249999881E-1
2.048369914E0,4.210000038E-1,8.200000226E-2,-9.499999881E-2
2.053357606E0,3.100000024E-1,4.999999888E-3,2.790000141E-1
2.058345298E0,1.770000011E-1,-2.999999933E-2,7.670000196E-1
2.063332991E0,6.700000167E-2,-3.500000015E-2,1.235999942E0
2.068320679E0,-4.899999872E-2,-1.899999939E-2,1.430999994E0
2.073308372E0,-1.920000017E-1,1.499999966E-2,1.373000026E0
2.078296065E0,-2.399999946E-1,6.700000167E-2,1.269000053E0
2.083283790E0,-2.509999871E-1,1.739999950E-1,1.121999979E0
2.088271482E0,-2.430000007E-1,2.660000026E-1,8.980000019E-1
2.093259173E0,-2.210000008E-1,3.240000010E-1,7.200000286E-1
2.098246865E0,-2.150000036E-1,3.829999864E-1,6.010000110E-1
2.103234557E0,-2.060000002E-1,3.759999871E-1,3.829999864E-1
2.108222245E0,-2.720000148E-1,3.639999926E-1,1.840000004E-1
2.113209937E0,-2.870000005E-1,2.720000148E-1,-1.499999966E-2
2.118197629E0,-1.550000012E-1,1.899999976E-1,-1.080000028E-1
2.123185321E0,-2.800000086E-2,1.350000054E-1,-1.700000018E-1
2.128173014E0,1.430000067E-1,1.080000028E-1,-1.819999963E-1
2.133160693E0,2.949999869E-1,7.299999893E-2,-2.409999967E-1
2.138148386E0,3.409999907E-1,2.199999988E-2,-2.809999883E-1
2.143136079E0,3.860000074E-1,-4.300000146E-2,-2.779999971E-1
2.148123785E0,4.269999862E-1,-1.049999967E-1,-2.709999979E-1
2.153111477E0,4.699999988E-1,-1.800000072E-1,-2.549999952E-1
2.158099188E0,5.500000119E-1,-2.630000114E-1,-1.710000038E-1
2.163086880E0,6.549999714E-1,-3.499999940E-1,-6.199999899E-2
2.168074567E0,7.070000172E-1,-3.849999905E-1,3.900000080E-2
2.173062259E0,7.210000157E-1,-3.919999897E-1,1.040000021E-1
2.178049951E0,6.019999981E-1,-3.170000017E-1,1.640000045E-1
2.183037667E0,3.989999890E-1,-1.519999951E-1,2.919999957E-1
2.188025360E0,2.829999924E-1,-2.000000030E-1,3.580000103E-1
2.193013053E0,2.220000029E-1,-2.849999964E-1,3.989999890E-1
2.198000732E0,1.739999950E-1,-3.919999897E-1,4.629999995E-1
2.202988425E0,2.020000070E-1,-5.230000019E-1,5.600000024E-1
2.207976083E0,1.599999964E-1,-6.230000257E-1,6.579999924E-1
2.212963775E0,1.099999994E-1,-6.480000019E-1,7.110000253E-1
2.217951542E0,2.000000095E-3,-6.499999762E-1,7.120000124E-1
2.222939233E0,-6.800000370E-2,-6.269999743E-1,5.789999962E-1
2.227926848E0,-1.270000041E-1,-5.839999914E-1,4.569999874E-1
2.232914538E0,-2.090000063E-1,-4.839999974E-1,2.829999924E-1
2.237902326E0,-2.739999890E-1,-3.630000055E-1,6.199999899E-2
2.242890020E0,-2.899999917E-1,-2.210000008E-1,-2.709999979E-1
2.247877712E0,-2.700000107E-1,-1.169999987E-1,-6.190000176E-1
2.252865387E0,-2.560000122E-1,-5.000000075E-2,-9.110000134E-1
2.257853079E0,-2.450000048E-1,1.099999994E-2,-1.093999982E0
2.262840771E0,-2.060000002E-1,3.700000048E-2,-1.210999966E0
2.267828443E0,-1.199999973E-1,5.299999937E-2,-1.251999974E0
2.272816135E0,-6.000000052E-3,7.100000232E-2,-1.245000005E0
2.277803827E0,7.500000298E-2,7.800000161E-2,-1.189000010E0
2.282791504E0,7.299999893E-2,6.800000370E-2,-1.111999989E0
2.287779196E0,2.600000054E-2,5.200000107E-2,-9.599999785E-1
2.292766888E0,-1.499999966E-2,-1.300000027E-2,-7.870000005E-1
2.297754567E0,-5.200000107E-2,-7.299999893E-2,-5.649999976E-1
2.302742260E0,-3.599999845E-2,-1.430000067E-1,-4.320000112E-1
2.307729953E0,-1.700000092E-2,-2.389999926E-1,-3.149999976E-1
2.312717645E0,-3.099999949E-2,-3.019999862E-1,-2.230000049E-1
2.317705361E0,-5.700000003E-2,-3.510000110E-1,-1.439999938E-1
2.322693053E0,-6.100000069E-2,-3.880000114E-1,-8.100000024E-2
2.327680730E0,-7.400000095E-2,-4.289999902E-1,-6.599999964E-2
2.332668422E0,-1.490000039E-1,-4.140000045E-1,-6.100000069E-2
2.337656345E0,-2.360000014E-1,-3.540000021E-1,-1.400000006E-1
2.342644039E0,-4.160000086E-1,-2.560000122E-1,-1.809999943E-1
2.347631731E0,-5.609999895E-1,-1.360000074E-1,-1.620000005E-1
2.352619424E0,-6.439999938E-1,-4.899999872E-2,-1.659999937E-1
2.357607097E0,-6.420000196E-1,-2.400000021E-2,-1.860000044E-1
2.362594789E0,-5.669999719E-1,-2.700000070E-2,-3.619999886E-1
2.367582482E0,-4.720000029E-1,-4.199999943E-2,-5.860000253E-1
2.372570160E0,-3.490000069E-1,-6.400000304E-2,-7.580000162E-1
2.377557852E0,-2.790000141E-1,-7.599999756E-2,-7.440000176E-1
2.382545544E0,-2.080000043E-1,-6.499999762E-2,-8.190000057E-1
2.387533240E0,-9.899999946E-2,-5.900000036E-2,-8.100000024E-1
2.392520932E0,-5.400000140E-2,-3.599999845E-2,-8.460000157E-1
2.397508624E0,-2.800000086E-2,7.000000216E-3,-8.389999866E-1
2.402496302E0,-1.899999939E-2,8.399999887E-2,-8.130000234E-1
2.407483994E0,-1.700000092E-2,1.529999971E-1,-7.289999723E-1
2.412471687E0,4.999999888E-3,1.819999963E-1,-6.499999762E-1
2.417459394E0,5.700000003E-2,2.049999982E-1,-5.260000229E-1
2.422447087E0,1.049999967E-1,1.640000045E-1,-4.589999914E-1
2.427434855E0,4.199999943E-2,1.609999985E-1,-3.779999912E-1
2.432422568E0,6.400000304E-2,1.519999951E-1,-3.059999943E-1
2.437410260E0,8.600000292E-2,1.519999951E-1,-2.179999948E-1
2.442397876E0,1.580000073E-1,1.289999932E-1,-1.270000041E-1
2.447385663E0,1.480000019E-1,7.800000161E-2,-3.799999878E-2
2.452373357E0,1.700000018E-1,4.199999943E-2,9.099999815E-2
2.457361044E0,1.360000074E-1,4.500000179E-2,2.319999933E-1
2.462348737E0,1.300000027E-2,1.289999932E-1,2.980000079E-1
2.467336395E0,-1.080000028E-1,1.669999957E-1,2.829999924E-1
2.472324087E0,-2.160000056E-1,1.870000064E-1,2.360000014E-1
2.477311779E0,-1.829999983E-1,1.920000017E-1,2.230000049E-1
2.482299491E0,-1.480000019E-1,1.609999985E-1,1.899999976E-1
2.487287183E0,-1.330000013E-1,1.150000021E-1,8.299999684E-2
2.492274875E0,-6.599999964E-2,9.999999776E-3,-4.800000042E-2
2.497262567E0,-7.599999756E-2,-4.300000146E-2,-9.200000018E-2
2.502250259E0,-2.730000019E-1,-3.400000185E-2,3.099999949E-2
2.507238182E0,-3.549999893E-1,-2.899999917E-2,1.379999965E-1
2.512225877E0,-4.020000100E-1,4.699999839E-2,2.269999981E-1
2.517213569E0,-4.020000100E-1,1.640000045E-1,2.450000048E-1
2.522201261E0,-2.969999909E-1,2.479999959E-1,1.759999990E-1
2.527188954E0,-1.860000044E-1,2.960000038E-1,9.300000221E-2
2.532176627E0,-1.309999973E-1,3.689999878E-1,1.759999990E-1
2.537164319E0,-1.220000014E-1,3.790000081E-1,2.899999917E-1
2.542152011E0,-8.399999887E-2,3.819999993E-1,4.679999948E-1
2.547139732E0,-1.150000021E-1,3.740000129E-1,6.340000033E-1
2.552127424E0,-3.999999911E-2,3.840000033E-1,7.639999986E-1
2.557115193E0,1.000000047E-3,3.580000103E-1,8.050000072E-1
2.562102887E0,-7.699999958E-2,3.269999921E-1,8.180000186E-1
2.567090502E0,-1.650000066E-1,3.109999895E-1,8.209999800E-1
2.572078193E0,-2.450000048E-1,2.389999926E-1,8.460000157E-1
2.577065962E0,-2.360000014E-1,1.469999999E-1,8.069999814E-1
2.582053656E0,-2.899999917E-1,9.700000286E-2,6.700000167E-1
2.587041348E0,-2.569999993E-1,-2.300000004E-2,5.519999862E-1
2.592029036E0,-5.979999900E-1,3.799999878E-2,6.290000081E-1
2.597016728E0,-6.600000262E-1,6.300000101E-2,6.100000143E-1
2.602004420E0,-6.660000086E-1,7.500000298E-2,4.880000055E-1
2.606992093E0,-5.270000100E-1,5.400000140E-2,3.580000103E-1
2.611979785E0,-4.769999981E-1,3.900000080E-2,2.360000014E-1
2.616967477E0,-4.239999950E-1,2.199999988E-2,1.389999986E-1
2.621955149E0,-3.499999940E-1,-3.000000026E-3,1.129999980E-1
2.626942841E0,-2.300000042E-1,2.600000054E-2,4.800000042E-2
2.631930750E0,-1.040000021E-1,2.600000054E-2,3.999999911E-2
2.636918214E0,-7.100000232E-2,8.999999613E-3,7.100000232E-2
2.641905904E0,1.499999966E-2,4.000000190E-3,1.140000001E-1
2.646893861E0,7.299999893E-2,-6.000000052E-3,8.699999750E-2
2.651881555E0,2.600000054E-2,6.000000052E-3,2.899999917E-2
2.656869233E0,-1.490000039E-1,3.500000015E-2,5.999999866E-2
2.661856925E0,-3.490000069E-1,1.030000001E-1,1.089999974E-1
2.666844583E0,-4.900000095E-1,1.780000031E-1,1.220000014E-1
2.671832276E0,-4.679999948E-1,2.129999995E-1,-4.999999888E-3
2.676820062E0,-3.569999933E-1,1.759999990E-1,-2.070000023E-1
2.681807756E0,-3.429999948E-1,1.030000001E-1,-7.020000219E-1
2.686795372E0,-4.970000088E-1,8.399999887E-2,-3.144999981E0
2.691783062E0,-5.289999843E-1,8.600000292E-2,3.039999902E-1
2.696770831E0,-3.219999969E-1,-3.599999845E-2,1.720000029E0
2.701758525E0,-1.500000060E-1,-1.030000001E-1,1.777999997E0
2.706746233E0,-6.800000370E-2,-2.829999924E-1,2.078999996E0
2.711733925E0,-3.900000080E-2,-4.259999990E-1,1.871999979E0
2.716721617E0,4.199999943E-2,-4.569999874E-1,1.432999969E0
2.721709310E0,8.399999887E-2,-3.659999967E-1,1.080999970E0
2.726697231E0,7.800000161E-2,-2.730000019E-1,9.909999967E-1
2.731684944E0,-2.000000095E-3,-2.489999980E-1,9.900000095E-1
2.736672636E0,-7.800000161E-2,-2.989999950E-1,9.850000143E-1
2.741660112E0,-1.059999987E-1,-3.409999907E-1,8.019999862E-1
2.746648033E0,-1.309999973E-1,-3.470000029E-1,6.389999986E-1
2.751635727E0,-2.210000008E-1,-2.720000148E-1,5.400000215E-1
2.756623406E0,-3.019999862E-1,-1.749999970E-1,4.609999955E-1
2.761611098E0,-4.020000100E-1,-1.059999987E-1,3.910000026E-1
2.766598790E0,-4.709999859E-1,-4.600000009E-2,4.280000031E-1
2.771586502E0,-4.280000031E-1,8.000000380E-3,4.320000112E-1
2.776574194E0,-2.680000067E-1,6.199999899E-2,3.149999976E-1
2.781561886E0,-5.299999937E-2,1.049999967E-1,6.199999899E-2
2.786549602E0,1.140000001E-1,1.030000001E-1,-2.460000068E-1
2.791537370E0,1.829999983E-1,7.900000364E-2,-5.989999771E-1
2.796525097E0,1.770000011E-1,2.400000021E-2,-8.119999766E-1
2.801512790E0,1.509999931E-1,-5.000000075E-2,-9.029999971E-1
2.806500482E0,1.669999957E-1,-8.600000292E-2,-8.849999905E-1
2.811488193E0,1.620000005E-1,-9.600000083E-2,-8.920000196E-1
2.816475886E0,1.350000054E-1,-1.010000035E-1,-9.200000167E-1
2.821463578E0,5.400000140E-2,-1.480000019E-1,-9.679999948E-1
2.826451284E0,1.620000005E-1,-1.949999928E-1,-1.080999970E0
2.831438976E0,3.249999881E-1,-2.770000100E-1,-1.177999973E0
2.836426898E0,5.170000196E-1,-3.109999895E-1,-1.233999968E0
2.841414602E0,5.320000052E-1,-3.330000043E-1,-1.172999978E0
2.846402063E0,4.769999981E-1,-3.280000091E-1,-1.054999948E0
2.851389985E0,3.799999952E-1,-2.870000005E-1,-8.130000234E-1
2.856377640E0,2.460000068E-1,-2.160000056E-1,-5.469999909E-1
2.861365332E0,1.360000074E-1,-1.780000031E-1,-3.359999955E-1
2.866352992E0,5.299999937E-2,-1.500000060E-1,-1.539999992E-1
2.871340685E0,2.099999972E-2,-1.739999950E-1,9.999999776E-3
2.876328377E0,2.800000086E-2,-2.060000002E-1,1.800000072E-1
2.881316162E0,7.800000161E-2,-2.720000148E-1,3.240000010E-1
2.886303857E0,1.770000011E-1,-3.689999878E-1,4.110000134E-1
2.891291578E0,3.260000050E-1,-4.539999962E-1,3.740000129E-1
2.896279270E0,5.730000138E-1,-4.819999933E-1,2.730000019E-1
2.901266963E0,7.850000262E-1,-4.370000064E-1,1.469999999E-1
2.906254655E0,9.229999781E-1,-3.689999878E-1,3.099999949E-2
2.911242347E0,9.430000186E-1,-2.639999986E-1,-9.700000286E-2
2.916230039E0,9.440000057E-1,-1.840000004E-1,-2.649999857E-1
2.921217956E0,9.029999971E-1,-7.999999821E-2,-4.280000031E-1
2.926205650E0,8.270000219E-1,-1.799999923E-2,-5.469999909E-1
2.931193342E0,8.289999962E-1,-7.000000030E-2,-7.250000238E-1
2.936180804E0,7.139999866E-1,-8.000000380E-3,-7.289999723E-1
2.941168725E0,5.809999704E-1,4.199999943E-2,-7.440000176E-1
2.946156414E0,5.130000114E-1,3.999999911E-2,-7.950000167E-1
2.951144107E0,5.080000162E-1,4.300000146E-2,-9.269999862E-1
2.956131799E0,5.310000181E-1,7.999999821E-2,-1.006999969E0
2.961119481E0,4.650000036E-1,1.959999949E-1,-1.034000039E0
2.966107248E0,3.519999981E-1,2.529999912E-1,-1.106999993E0
2.971094943E0,1.920000017E-1,3.059999943E-1,-1.154999971E0
2.976082635E0,-7.400000095E-2,3.630000055E-1,-1.098000050E0
2.981070327E0,-2.770000100E-1,3.779999912E-1,-1.031999946E0
2.986058020E0,-3.370000124E-1,3.889999986E-1,-9.269999862E-1
2.991045712E0,-2.750000060E-1,4.090000093E-1,-7.929999828E-1
2.996033385E0,-1.659999937E-1,4.230000079E-1,-6.980000138E-1
3.001021077E0,-1.000000015E-1,3.939999938E-1,-6.250000000E-1
3.006008736E0,-4.800000042E-2,3.549999893E-1,-5.839999914E-1
3.010996428E0,7.599999756E-2,3.129999936E-1,-5.649999976E-1
3.015984116E0,2.310000062E-1,2.540000081E-1,-3.560000062E-1
3.020971808E0,2.349999994E-1,1.899999976E-1,-2.980000079E-1
3.025959731E0,2.010000050E-1,1.319999993E-1,3.799999878E-2
3.030947405E0,1.490000039E-1,1.190000027E-1,3.269999921E-1
3.035935098E0,6.800000370E-2,9.499999881E-2,5.180000067E-1
3.040922790E0,9.999999776E-3,1.110000014E-1,6.639999747E-1
3.045910492E0,-6.800000370E-2,1.289999932E-1,7.200000286E-1
3.050898260E0,-2.189999968E-1,1.850000024E-1,7.390000224E-1
3.055885940E0,-3.359999955E-1,2.709999979E-1,6.700000167E-1
3.060873555E0,-2.590000033E-1,2.949999869E-1,5.550000072E-1
3.065861342E0,-1.209999993E-1,2.680000067E-1,4.839999974E-1
3.070849036E0,-1.080000028E-1,2.090000063E-1,4.370000064E-1
3.075836728E0,-9.799999744E-2,1.770000011E-1,4.320000112E-1
3.080824416E0,-4.399999976E-2,2.080000043E-1,4.539999962E-1
3.085812108E0,-2.500000037E-2,2.259999961E-1,5.149999857E-1
3.090799800E0,-4.500000179E-2,2.249999940E-1,5.979999900E-1
3.095787482E0,8.999999613E-3,1.589999944E-1,6.660000086E-1
3.100775174E0,1.099999994E-2,1.209999993E-1,6.610000134E-1
3.105763096E0,1.099999994E-2,1.019999981E-1,5.759999752E-1
3.110750785E0,-5.200000107E-2,1.239999980E-1,5.009999871E-1
3.115738478E0,1.180000007E-1,1.720000058E-1,4.950000048E-1
3.120726174E0,2.560000122E-1,1.780000031E-1,5.780000091E-1
3.125713866E0,2.750000060E-1,1.480000019E-1,5.749999881E-1
3.130701559E0,2.099999934E-1,8.600000292E-2,6.549999714E-1
3.135689307E0,1.379999965E-1,2.199999988E-2,8.289999962E-1
3.140677001E0,2.600000054E-2,1.999999955E-2,9.919999838E-1
3.145664693E0,7.000000216E-3,5.400000140E-2,1.031000018E0
3.150652373E0,1.360000074E-1,5.499999970E-2,9.900000095E-1
3.155640065E0,2.349999994E-1,2.099999972E-2,9.010000229E-1
3.160627757E0,4.020000100E-1,-3.400000185E-2,7.129999995E-1
3.165615429E0,5.460000038E-1,-9.600000083E-2,5.469999909E-1
3.170603121E0,5.939999819E-1,-1.129999980E-1,5.329999924E-1
3.175591043E0,5.569999814E-1,-1.209999993E-1,5.450000167E-1
3.180578737E0,4.939999878E-1,-1.350000054E-1,5.950000286E-1
3.185566430E0,5.350000262E-1,-1.000000015E-1,4.569999874E-1
3.190554117E0,5.809999704E-1,-5.299999937E-2,3.540000021E-1
3.195541809E0,5.580000281E-1,0.000000000E0,2.370000035E-1
3.200529502E0,3.300000131E-1,5.200000107E-2,1.070000008E-1
3.205517209E0,1.490000039E-1,9.899999946E-2,-1.099999994E-2
3.210504901E0,1.150000021E-1,1.500000060E-1,-4.899999872E-2
3.215492578E0,7.100000232E-2,1.529999971E-1,1.700000092E-2
3.220480346E0,-2.000000095E-3,1.350000054E-1,8.100000024E-2
3.225468040E0,-2.800000086E-2,8.100000024E-2,1.969999969E-1
3.230455733E0,-2.800000086E-2,8.999999613E-3,2.820000052E-1
3.235443425E0,-4.199999943E-2,-3.700000048E-2,3.289999962E-1
3.240431117E0,6.700000167E-2,-1.410000026E-1,3.819999993E-1
3.245418843E0,1.070000008E-1,-1.800000072E-1,4.050000012E-1
3.250406535E0,-1.099999994E-2,-1.630000025E-1,3.240000010E-1
3.255394227E0,-5.799999833E-2,-1.239999980E-1,1.570000052E-1
3.260381900E0,-6.199999899E-2,-1.030000001E-1,9.099999815E-2
3.265369823E0,-7.400000095E-2,-1.319999993E-1,7.500000298E-2
3.270357531E0,-1.030000001E-1,-1.770000011E-1,1.650000066E-1
3.275345223E0,-8.600000292E-2,-2.790000141E-1,2.680000067E-1
3.280332915E0,-7.100000232E-2,-3.000000119E-1,3.330000043E-1
3.285320608E0,-1.799999923E-2,-3.260000050E-1,3.829999864E-1
3.290308300E0,3.999999911E-2,-5.080000162E-1,3.389999866E-1
3.295295982E0,1.070000008E-1,-6.439999938E-1,2.939999998E-1
3.300283750E0,1.539999992E-1,-7.390000224E-1,2.579999864E-1
3.305271454E0,2.899999917E-1,-7.580000162E-1,2.730000019E-1
3.310259146E0,3.260000050E-1,-7.519999743E-1,2.800000012E-1
3.315246839E0,3.449999988E-1,-6.909999847E-1,2.700000107E-1
3.320234531E0,2.370000035E-1,-5.849999785E-1,1.679999977E-1
3.325222223E0,8.399999887E-2,-4.850000143E-1,8.399999887E-2
3.330209896E0,-6.000000052E-3,-3.420000076E-1,-5.799999833E-2
3.335197588E0,-6.199999899E-2,-1.860000044E-1,-2.380000055E-1
3.340185510E0,-8.200000226E-2,-5.600000173E-2,-3.930000067E-1
3.345173204E0,-1.350000054E-1,4.199999943E-2,-5.809999704E-1
3.350160661E0,-1.819999963E-1,8.299999684E-2,-8.019999862E-1
3.355148582E0,-6.700000167E-2,1.969999969E-1,-1.006999969E0
3.360136295E0,-1.049999967E-1,2.399999946E-1,-1.212000012E0
3.365123988E0,2.600000054E-2,2.820000052E-1,-1.322999954E0
3.370111680E0,1.000000047E-3,2.899999917E-1,-1.427999973E0
3.375099386E0,4.100000113E-2,2.930000126E-1,-1.452999949E0
3.380087153E0,0.000000000E0,2.669999897E-1,-1.371000051E0
3.385074839E0,-1.799999923E-2,2.619999945E-1,-1.317000031E0
3.390062531E0,-3.700000048E-2,2.360000014E-1,-1.195000052E0
3.395050208E0,-2.800000086E-2,1.710000038E-1,-1.080999970E0
3.400037901E0,-4.699999839E-2,6.800000370E-2,-8.870000243E-1
3.405025822E0,-7.000000030E-2,-2.899999917E-2,-6.330000162E-1
3.410013285E0,-6.899999827E-2,-1.150000021E-1,-3.840000033E-1
3.415000976E0,-8.999999613E-3,-1.990000010E-1,-2.230000049E-1
3.419988899E0,4.500000179E-2,-3.109999895E-1,-9.399999678E-2
3.424976593E0,7.199999690E-2,-4.020000100E-1,3.700000048E-2
3.429964271E0,4.399999976E-2,-4.709999859E-1,1.689999998E-1
3.434951964E0,-5.400000140E-2,-4.819999933E-1,3.289999962E-1
3.439939670E0,-1.979999989E-1,-4.350000024E-1,4.320000112E-1
3.444927437E0,-3.039999902E-1,-3.899999857E-1,4.219999909E-1
3.449915055E0,-3.120000064E-1,-3.600000143E-1,3.089999855E-1
3.454902726E0,-2.879999876E-1,-3.339999914E-1,1.430000067E-1
3.459890495E0,-2.489999980E-1,-3.149999976E-1,-4.300000146E-2
3.464878219E0,-1.940000057E-1,-3.129999936E-1,-1.500000060E-1
3.469865834E0,-1.599999964E-1,-3.420000076E-1,-2.169999927E-1
3.474853601E0,-1.689999998E-1,-3.249999881E-1,-2.349999994E-1
3.479841314E0,-1.669999957E-1,-2.660000026E-1,-2.639999986E-1
3.484829006E0,-1.870000064E-1,-1.630000025E-1,-3.240000010E-1
3.489816689E0,-3.319999874E-1,-4.199999943E-2,-4.819999933E-1
3.494804382E0,-5.740000010E-1,6.499999762E-2,-6.069999933E-1
3.499792308E0,-7.350000143E-1,1.589999944E-1,-6.750000119E-1
3.504780002E0,-9.060000181E-1,2.689999938E-1,-7.030000091E-1
3.509767694E0,-9.079999924E-1,3.400000036E-1,-7.960000038E-1
3.514755387E0,-8.149999976E-1,3.619999886E-1,-8.339999914E-1
3.519743079E0,-7.110000253E-1,3.429999948E-1,-8.180000186E-1
3.524730790E0,-6.639999747E-1,2.910000086E-1,-7.730000019E-1
3.529718483E0,-5.749999881E-1,1.809999943E-1,-6.880000234E-1
3.534706175E0,-4.679999948E-1,1.299999952E-1,-6.529999971E-1
3.539693947E0,-3.379999995E-1,1.190000027E-1,-5.109999776E-1
3.544681641E0,-2.090000063E-1,1.490000039E-1,-3.490000069E-1
3.549669329E0,-8.299999684E-2,1.379999965E-1,-2.370000035E-1
3.554657021E0,-1.979999989E-1,1.199999973E-1,-1.990000010E-1
3.559644699E0,-5.700000003E-2,3.330000043E-1,-2.569999993E-1
3.564632392E0,7.000000216E-3,5.400000215E-1,-3.900000080E-2
3.569620084E0,-1.999999955E-2,6.240000129E-1,1.099999994E-1
3.574607757E0,-2.380000055E-1,6.890000105E-1,4.699999839E-2
3.579595678E0,-3.670000136E-1,6.309999824E-1,1.319999993E-1
3.584583373E0,-3.829999864E-1,5.600000024E-1,2.389999926E-1
3.589571065E0,-3.199999928E-1,5.500000119E-1,3.039999902E-1
3.594558757E0,-2.290000021E-1,5.509999990E-1,2.870000005E-1
3.599546469E0,-1.519999951E-1,5.270000100E-1,2.090000063E-1
3.604534161E0,-9.499999881E-2,4.609999955E-1,1.379999965E-1
3.609521853E0,-5.900000036E-2,4.269999862E-1,1.260000020E-1
3.614509545E0,-2.600000054E-2,3.790000081E-1,1.909999996E-1
3.619497313E0,3.400000185E-2,3.030000031E-1,2.579999864E-1
3.624485007E0,8.799999952E-2,2.269999981E-1,3.519999981E-1
3.629472700E0,1.110000014E-1,1.490000039E-1,4.729999900E-1
3.634460392E0,1.190000027E-1,1.169999987E-1,5.329999924E-1
3.639448084E0,1.449999958E-1,1.190000027E-1,5.389999747E-1
3.644435814E0,1.369999945E-1,2.039999962E-1,4.869999886E-1
3.649423506E0,1.400000043E-2,2.649999857E-1,4.050000012E-1
3.654411394E0,-6.700000167E-2,2.730000019E-1,2.849999964E-1
3.659399088E0,-1.129999980E-1,2.529999912E-1,2.529999912E-1
3.664386781E0,-1.739999950E-1,2.210000008E-1,3.600000143E-1
3.669374473E0,-1.700000018E-1,2.249999940E-1,4.679999948E-1
3.674362165E0,-2.569999993E-1,2.329999954E-1,5.979999900E-1
3.679349858E0,-3.030000031E-1,2.560000122E-1,6.529999971E-1
3.684337550E0,-3.610000014E-1,2.750000060E-1,5.260000229E-1
3.689325236E0,-4.110000134E-1,2.509999871E-1,4.900000095E-1
3.694312928E0,-3.630000055E-1,2.230000049E-1,5.030000210E-1
3.699300683E0,-2.770000100E-1,1.589999944E-1,4.819999933E-1
3.704288377E0,-1.949999928E-1,3.900000080E-2,4.199999869E-1
3.709276050E0,-1.159999967E-1,-5.999999866E-2,4.639999866E-1
3.714263743E0,-6.400000304E-2,-1.620000005E-1,5.759999752E-1
3.719251435E0,6.300000101E-2,-2.349999994E-1,5.429999828E-1
3.724239127E0,1.979999989E-1,-2.669999897E-1,3.700000048E-1
3.729226819E0,3.149999976E-1,-2.339999974E-1,9.600000083E-2
3.734214506E0,2.249999940E-1,-1.909999996E-1,-1.580000073E-1
3.739202428E0,8.000000380E-3,-8.799999952E-2,-2.890000045E-1
3.744190122E0,-2.230000049E-1,2.700000070E-2,-2.039999962E-1
3.749177815E0,-3.889999986E-1,1.169999987E-1,-8.550000191E-1
3.754165507E0,-8.629999757E-1,3.140000105E-1,-1.429000020E0
3.759153228E0,-9.869999886E-1,2.910000086E-1,1.113999963E0
3.764140921E0,-1.011999965E0,9.300000221E-2,2.163000107E0
3.769128631E0,-1.197999954E0,-1.499999966E-2,2.177000046E0
3.774116323E0,-9.599999785E-1,-1.319999993E-1,2.164999962E0
3.779104091E0,-5.379999876E-1,-2.210000008E-1,1.695000052E0
3.784091785E0,-2.179999948E-1,-2.300000042E-1,1.141999960E0
3.789079477E0,-2.500000037E-2,-2.070000023E-1,7.099999785E-1
3.794067183E0,7.299999893E-2,-2.039999962E-1,5.120000243E-1
3.799054876E0,1.180000007E-1,-1.990000010E-1,4.580000043E-1
3.804042816E0,1.209999993E-1,-2.189999968E-1,4.639999866E-1
3.809030510E0,1.350000054E-1,-2.360000014E-1,4.740000069E-1
3.814018203E0,1.169999987E-1,-2.140000015E-1,4.869999886E-1
3.819005895E0,6.300000101E-2,-2.000000030E-1,4.519999921E-1
3.823993587E0,-1.700000092E-2,-1.389999986E-1,4.309999943E-1
3.828981265E0,-9.799999744E-2,-5.499999970E-2,3.560000062E-1
3.833968958E0,-1.340000033E-1,-1.300000027E-2,2.310000062E-1
3.838956684E0,-1.169999987E-1,6.000000052E-3,5.299999937E-2
3.843944376E0,-1.010000035E-1,-2.099999972E-2,-1.640000045E-1
3.848932144E0,-8.600000292E-2,-9.200000018E-2,-2.339999974E-1
3.853919838E0,-5.900000036E-2,-1.420000046E-1,-3.000000119E-1
3.858907530E0,-3.999999911E-2,-1.899999976E-1,-3.549999893E-1
3.863895232E0,-4.100000113E-2,-2.290000021E-1,-4.300000072E-1
3.868882924E0,-1.200000010E-2,-2.000000030E-1,-5.490000248E-1
3.873870616E0,5.299999937E-2,-1.889999956E-1,-6.280000210E-1
3.878858328E0,1.340000033E-1,-1.949999928E-1,-7.549999952E-1
3.883846020E0,1.720000058E-1,-2.549999952E-1,-8.360000253E-1
3.888833952E0,2.339999974E-1,-3.100000024E-1,-8.930000067E-1
3.893821416E0,3.210000098E-1,-3.179999888E-1,-9.689999819E-1
3.898809371E0,3.700000048E-1,-2.569999993E-1,-1.004999995E0
3.903797065E0,4.930000007E-1,-2.169999927E-1,-1.050999999E0
3.908784756E0,5.550000072E-1,-1.959999949E-1,-9.959999919E-1
3.913772449E0,5.260000229E-1,-2.119999975E-1,-8.460000157E-1
3.918760161E0,4.399999976E-1,-2.160000056E-1,-6.959999800E-1
3.923747853E0,3.729999959E-1,-1.940000057E-1,-5.320000052E-1
3.928735546E0,3.190000057E-1,-1.570000052E-1,-3.680000007E-1
3.933723252E0,2.709999979E-1,-1.230000034E-1,-2.310000062E-1
3.938711019E0,1.949999928E-1,-1.040000021E-1,-1.289999932E-1
3.943698699E0,1.260000020E-1,-9.099999815E-2,-2.099999972E-2
3.948686392E0,-3.099999949E-2,-7.999999821E-2,6.100000069E-2
3.953674084E0,-1.529999971E-1,-5.099999905E-2,1.309999973E-1
3.958661761E0,-2.029999942E-1,-1.200000010E-2,1.529999971E-1
3.963649454E0,-5.700000003E-2,-5.299999937E-2,1.430000067E-1
3.968637370E0,1.180000007E-1,-1.400000006E-1,1.030000001E-1
3.973625064E0,2.230000049E-1,-1.959999949E-1,6.499999762E-2
3.978612737E0,3.370000124E-1,-2.779999971E-1,2.300000004E-2
3.983600430E0,4.420000017E-1,-3.269999921E-1,-2.500000037E-2
3.988588103E0,5.320000052E-1,-3.580000103E-1,-3.299999982E-2
3.993575795E0,5.460000038E-1,-3.569999933E-1,-1.220000014E-1
3.998563493E0,4.830000103E-1,-3.330000043E-1,-2.010000050E-1
4.003551185E0,3.970000148E-1,-2.779999971E-1,-2.989999950E-1
4.008538952E0,4.230000079E-1,-1.949999928E-1,-4.460000098E-1
4.013526628E0,5.379999876E-1,-1.049999967E-1,-5.360000134E-1
4.018514320E0,5.889999866E-1,-7.000000030E-2,-6.589999795E-1
4.023502011E0,5.649999976E-1,-4.300000146E-2,-7.799999714E-1
4.028489704E0,5.249999762E-1,8.999999613E-3,-9.110000134E-1
4.033477396E0,4.620000124E-1,7.400000095E-2,-9.819999933E-1
4.038465103E0,3.980000019E-1,1.299999952E-1,-9.789999723E-1
4.043452795E0,3.319999874E-1,1.729999930E-1,-9.340000153E-1
4.048440702E0,3.129999936E-1,1.729999930E-1,-9.120000005E-1
4.053428396E0,3.170000017E-1,1.710000038E-1,-8.880000114E-1
4.058416068E0,3.039999902E-1,1.689999998E-1,-8.389999866E-1
4.063403761E0,3.160000145E-1,1.809999943E-1,-7.940000296E-1
4.068391453E0,3.289999962E-1,1.889999956E-1,-7.630000114E-1
4.073379136E0,3.989999890E-1,1.850000024E-1,-7.440000176E-1
4.078366829E0,4.149999917E-1,1.879999936E-1,-7.260000110E-1
4.083354591E0,3.129999936E-1,2.290000021E-1,-6.779999733E-1
4.088342285E0,1.449999958E-1,2.709999979E-1,-5.600000024E-1
4.093329977E0,6.199999899E-2,3.050000072E-1,-3.650000095E-1
4.098317675E0,1.070000008E-1,3.280000091E-1,-2.039999962E-1
4.103305367E0,1.620000005E-1,2.910000086E-1,-6.199999899E-2
4.108293059E0,7.800000161E-2,2.730000019E-1,6.899999827E-2
4.113280751E0,1.999999955E-2,2.840000093E-1,3.379999995E-1
4.118268428E0,-1.650000066E-1,3.109999895E-1,4.199999869E-1
4.123256350E0,-2.090000063E-1,2.759999931E-1,4.449999928E-1
4.128244044E0,-1.609999985E-1,2.199999988E-1,5.230000019E-1
4.133231718E0,-1.879999936E-1,2.070000023E-1,5.410000086E-1
4.138219410E0,-3.400000185E-2,1.459999979E-1,5.009999871E-1
4.143207102E0,-3.869999945E-1,1.169999987E-1,4.620000124E-1
4.148194795E0,-8.299999684E-2,9.300000221E-2,3.950000107E-1
4.153182487E0,2.329999954E-1,5.200000107E-2,4.979999959E-1
4.158170193E0,4.580000043E-1,-7.500000298E-2,4.900000095E-1
4.163157961E0,4.990000129E-1,-2.300000042E-1,4.930000007E-1
4.168145665E0,4.810000062E-1,-3.330000043E-1,5.960000157E-1
4.173133357E0,4.900000095E-1,-3.819999993E-1,6.560000181E-1
4.178121064E0,5.929999948E-1,-4.909999967E-1,7.110000253E-1
4.183108756E0,8.439999819E-1,-5.540000200E-1,7.390000224E-1
4.188096672E0,9.860000014E-1,-5.540000200E-1,8.339999914E-1
4.193084135E0,9.240000248E-1,-4.600000083E-1,1.016000032E0
4.198071826E0,6.880000234E-1,-3.409999907E-1,1.205000043E0
4.203059749E0,3.829999864E-1,-2.119999975E-1,1.307000041E0
4.208047443E0,1.209999993E-1,-5.600000173E-2,1.292999983E0
4.213035136E0,-1.019999981E-1,1.190000027E-1,1.271000028E0
4.218022828E0,-2.800000012E-1,2.689999938E-1,1.190999985E0
4.223010486E0,-4.309999943E-1,3.720000088E-1,1.128999949E0
4.227998253E0,-6.000000238E-1,4.259999990E-1,1.008999944E0
4.232985871E0,-6.380000114E-1,4.230000079E-1,7.570000291E-1
4.237973576E0,-7.500000000E-1,3.580000103E-1,4.199999869E-1
4.242961345E0,-4.740000069E-1,3.740000129E-1,2.000000095E-3
4.247949040E0,-8.600000292E-2,4.659999907E-1,-4.149999917E-1
4.252936732E0,1.260000020E-1,5.490000248E-1,-6.320000291E-1
4.257924438E0,3.900000080E-2,5.979999900E-1,-6.510000229E-1
4.262912131E0,-1.669999957E-1,5.799999833E-1,-5.440000296E-1
4.267900052E0,-2.750000060E-1,5.270000100E-1,-2.779999971E-1
4.272887501E0,-2.599999905E-1,4.959999919E-1,7.699999958E-2
4.277875422E0,-1.979999989E-1,4.580000043E-1,3.889999986E-1
4.282863126E0,-9.700000286E-2,4.099999964E-1,6.370000243E-1
4.287850818E0,0.000000000E0,2.899999917E-1,7.929999828E-1
4.292838510E0,1.169999987E-1,1.669999957E-1,8.330000043E-1
4.297826189E0,2.269999981E-1,5.099999905E-2,7.659999728E-1
4.302813881E0,3.429999948E-1,-5.999999866E-2,6.840000153E-1
4.307801653E0,4.370000064E-1,-1.400000006E-1,6.219999790E-1
4.312789348E0,4.699999988E-1,-1.829999983E-1,5.989999771E-1
4.317777059E0,4.350000024E-1,-1.539999992E-1,5.360000134E-1
4.322764751E0,3.959999979E-1,-1.129999980E-1,4.309999943E-1
4.327752444E0,3.109999895E-1,-7.900000364E-2,3.370000124E-1
4.332740145E0,2.070000023E-1,-6.499999762E-2,1.909999996E-1
4.337727837E0,1.099999994E-1,-6.899999827E-2,1.260000020E-1
4.342715520E0,-1.030000001E-1,-1.550000012E-1,1.199999973E-1
4.347703442E0,-9.399999678E-2,-2.419999987E-1,1.319999993E-1
4.352690905E0,-5.799999833E-2,-3.429999948E-1,1.129999980E-1
4.357678802E0,-6.300000101E-2,-4.679999948E-1,2.230000049E-1
4.362666497E0,-1.059999987E-1,-5.329999924E-1,3.160000145E-1
4.367654174E0,-2.039999962E-1,-5.759999752E-1,3.580000103E-1
4.372641866E0,-2.599999905E-1,-5.699999928E-1,3.420000076E-1
4.377629558E0,1.220000014E-1,-5.130000114E-1,3.210000098E-1
4.382617326E0,-3.190000057E-1,-5.939999819E-1,3.219999969E-1
4.387605020E0,-4.480000138E-1,-6.520000100E-1,4.050000012E-1
4.392592669E0,-2.319999933E-1,-6.090000272E-1,-5.400000140E-2
4.397580437E0,8.999999613E-3,-4.970000088E-1,-1.199999973E-1
4.402568116E0,2.649999857E-1,-3.899999857E-1,-1.729999930E-1
4.407555808E0,1.640000045E-1,-3.729999959E-1,-2.910000086E-1
4.412543501E0,3.000000026E-3,-3.919999897E-1,-3.650000095E-1
4.417531213E0,-7.699999958E-2,-3.899999857E-1,-5.310000181E-1
4.422519134E0,8.900000155E-2,-3.030000031E-1,-6.150000095E-1
4.427506828E0,1.759999990E-1,-2.399999946E-1,-7.139999866E-1
4.432494521E0,2.249999940E-1,-1.710000038E-1,-8.640000224E-1
4.437482233E0,1.049999967E-1,-1.120000035E-1,-1.052999973E0
4.442469925E0,-1.000000047E-3,-1.499999966E-2,-1.197000027E0
4.447457618E0,-4.899999872E-2,8.699999750E-2,-1.292000055E0
4.452445310E0,-1.019999981E-1,1.770000011E-1,-1.335000038E0
4.457433077E0,-1.469999999E-1,2.509999871E-1,-1.294000030E0
4.462420772E0,-2.210000008E-1,3.079999983E-1,-1.187999964E0
4.467408464E0,-2.840000093E-1,3.549999893E-1,-1.159000039E0
4.472396156E0,-2.879999876E-1,3.630000055E-1,-1.110999942E0
4.477383838E0,-2.269999981E-1,3.300000131E-1,-1.008999944E0
4.482371531E0,-1.430000067E-1,2.409999967E-1,-8.920000196E-1
4.487359452E0,-5.900000036E-2,1.330000013E-1,-7.229999900E-1
4.492346915E0,6.000000052E-3,-7.000000216E-3,-4.959999919E-1
4.497334837E0,2.400000021E-2,-1.280000061E-1,-2.389999926E-1
4.502322545E0,3.400000185E-2,-2.080000043E-1,-5.400000140E-2
4.507310237E0,1.799999923E-2,-2.619999945E-1,1.059999987E-1
4.512297934E0,-1.799999923E-2,-2.779999971E-1,2.489999980E-1
4.517285627E0,-8.100000024E-2,-2.820000052E-1,3.740000129E-1
4.522273384E0,-1.319999993E-1,-2.790000141E-1,4.650000036E-1
4.527261078E0,-1.509999931E-1,-2.649999857E-1,5.099999905E-1
4.532248771E0,-1.480000019E-1,-2.240000069E-1,5.320000052E-1
4.537236459E0,-2.349999994E-1,-3.009999990E-1,5.410000086E-1
4.542224151E0,-2.630000114E-1,-2.680000067E-1,3.810000122E-1
4.547211868E0,-2.039999962E-1,-2.259999961E-1,2.259999961E-1
4.552199560E0,-1.879999936E-1,-1.879999936E-1,2.039999962E-1
4.557187252E0,-2.060000002E-1,-1.659999937E-1,4.199999943E-2
4.562174963E0,-1.969999969E-1,-1.360000074E-1,-1.819999963E-1
4.567162885E0,-1.650000066E-1,-8.600000292E-2,-3.959999979E-1
4.572150593E0,-1.110000014E-1,-2.099999972E-2,-5.619999766E-1
4.577138285E0,-8.299999684E-2,5.499999970E-2,-7.059999704E-1
4.582125959E0,-4.300000146E-2,1.049999967E-1,-8.100000024E-1
4.587113651E0,-2.899999917E-2,1.509999931E-1,-8.840000033E-1
4.592101418E0,-5.600000173E-2,1.940000057E-1,-9.229999781E-1
4.597089113E0,-5.600000173E-2,2.469999939E-1,-9.760000110E-1
4.602076728E0,-1.799999923E-2,2.569999993E-1,-9.679999948E-1
4.607064495E0,9.999999776E-3,2.489999980E-1,-9.160000086E-1
4.612052189E0,2.500000037E-2,2.280000001E-1,-8.230000138E-1
4.617039868E0,9.300000221E-2,2.129999995E-1,-7.099999785E-1
4.622027560E0,1.350000054E-1,2.259999961E-1,-6.370000243E-1
4.627015252E0,1.220000014E-1,2.210000008E-1,-5.839999914E-1
4.632003174E0,9.899999946E-2,2.109999955E-1,-5.440000296E-1
4.636990868E0,-1.899999939E-2,2.070000023E-1,-3.970000148E-1
4.641978564E0,-2.360000014E-1,2.380000055E-1,-2.099999934E-1
4.646966257E0,-2.980000079E-1,3.000000119E-1,-3.599999845E-2
4.651953949E0,-2.649999857E-1,3.639999926E-1,1.010000035E-1
4.656941656E0,-2.389999926E-1,3.849999905E-1,2.029999942E-1
4.661929348E0,-2.419999987E-1,3.639999926E-1,2.160000056E-1
4.666917125E0,-2.319999933E-1,2.960000038E-1,1.609999985E-1
4.671904819E0,-1.949999928E-1,2.520000041E-1,1.059999987E-1
4.676892511E0,-1.449999958E-1,2.090000063E-1,7.500000298E-2
4.681880204E0,-1.309999973E-1,1.889999956E-1,9.200000018E-2
4.686867896E0,-1.309999973E-1,1.790000051E-1,1.410000026E-1
4.691855569E0,-1.180000007E-1,1.990000010E-1,2.329999954E-1
4.696843261E0,-3.500000015E-2,2.800000012E-1,3.170000017E-1
4.701831193E0,-6.499999762E-2,2.849999964E-1,4.120000005E-1
4.706818887E0,-1.260000020E-1,2.599999905E-1,4.600000083E-1
4.711806579E0,-1.469999999E-1,2.389999926E-1,4.350000024E-1
4.716794267E0,-2.150000036E-1,2.639999986E-1,4.320000112E-1
4.721781959E0,-2.680000067E-1,2.879999876E-1,4.449999928E-1
4.726769726E0,-3.860000074E-1,3.370000124E-1,4.230000079E-1
4.731757349E0,-5.429999828E-1,3.770000041E-1,4.230000079E-1
4.736745116E0,-4.760000110E-1,4.490000010E-1,4.569999874E-1
4.741732795E0,-3.670000136E-1,4.659999907E-1,4.300000072E-1
4.746720488E0,-4.300000072E-1,4.210000038E-1,4.629999995E-1
4.751708166E0,-4.169999957E-1,3.310000002E-1,5.749999881E-1
4.756695858E0,-3.519999981E-1,2.949999869E-1,7.490000129E-1
4.761683764E0,-2.259999961E-1,2.899999917E-1,8.199999928E-1
4.766671459E0,-4.530000091E-1,2.160000056E-1,8.889999986E-1
4.771659151E0,-5.500000119E-1,1.580000073E-1,7.229999900E-1
4.776646843E0,-4.230000079E-1,1.909999996E-1,5.210000277E-1
4.781634536E0,-1.959999949E-1,2.560000122E-1,5.699999928E-1
4.786622228E0,-1.340000033E-1,2.739999890E-1,6.589999795E-1
4.791609939E0,-1.949999928E-1,2.380000055E-1,5.789999962E-1
4.796597631E0,-3.149999976E-1,1.080000028E-1,4.609999955E-1
4.801585309E0,-3.019999862E-1,-1.799999923E-2,4.639999866E-1
4.806573077E0,-1.930000037E-1,-8.900000155E-2,5.460000038E-1
4.811560790E0,-1.049999967E-1,-1.379999965E-1,5.970000029E-1
4.816548483E0,-2.020000070E-1,-2.199999988E-1,5.789999962E-1
4.821536155E0,-4.100000113E-2,-1.720000058E-1,6.050000191E-1
4.826523847E0,3.700000048E-2,-1.509999931E-1,5.910000205E-1
4.831511540E0,-1.019999981E-1,-2.389999926E-1,5.569999814E-1
4.836499461E0,-4.699999839E-2,-3.039999902E-1,6.290000081E-1
4.841487155E0,5.780000091E-1,-1.019999981E-1,5.899999738E-1
4.846474847E0,5.070000291E-1,-1.600000076E-2,5.749999881E-1
4.851462525E0,8.900000155E-2,-1.299999952E-1,5.649999976E-1
4.856450217E0,-1.860000044E-1,-2.949999869E-1,5.979999900E-1
4.861437909E0,-2.849999964E-1,-3.740000129E-1,6.449999809E-1
4.866425602E0,-2.829999924E-1,-3.199999928E-1,6.840000153E-1
4.871413360E0,-2.759999931E-1,-2.540000081E-1,6.930000186E-1
4.876401054E0,-2.860000134E-1,-2.300000042E-1,6.480000019E-1
4.881388761E0,-3.109999895E-1,-2.319999933E-1,6.290000081E-1
4.886376453E0,-3.580000103E-1,-2.310000062E-1,6.129999757E-1
4.891364145E0,-3.630000055E-1,-2.310000062E-1,6.159999967E-1
4.896352056E0,-3.339999914E-1,-2.230000049E-1,5.770000219E-1
4.901339751E0,-2.860000134E-1,-1.969999969E-1,5.540000200E-1
4.906327463E0,-2.619999945E-1,-1.689999998E-1,4.699999988E-1
4.911315155E0,-2.210000008E-1,-1.529999971E-1,4.889999926E-1
4.916302848E0,-1.800000072E-1,-1.389999986E-1,4.000000060E-1
4.921290540E0,-1.439999938E-1,-1.550000012E-1,3.339999914E-1
4.926278307E0,-1.500000060E-1,-1.870000064E-1,2.090000063E-1
4.931266010E0,-1.449999958E-1,-2.259999961E-1,1.669999957E-1
4.936253703E0,-1.729999930E-1,-2.169999927E-1,7.199999690E-2
4.941241424E0,-9.399999678E-2,-2.619999945E-1,-7.299999893E-2
4.946229116E0,-4.500000179E-2,-2.689999938E-1,-3.109999895E-1
4.951216823E0,-2.999999933E-2,-2.280000001E-1,-5.320000052E-1
4.956204515E0,-1.400000043E-2,-2.090000063E-1,-7.549999952E-1
4.961192441E0,5.700000003E-2,-2.020000070E-1,-9.490000010E-1
4.966180135E0,1.260000020E-1,-1.790000051E-1,-1.133000016E0
4.971167814E0,1.459999979E-1,-1.580000073E-1,-1.325000048E0
4.976155506E0,1.840000004E-1,-1.319999993E-1,-1.449000001E0
4.981143193E0,2.199999988E-1,-1.019999981E-1,-1.493999958E0
4.986130886E0,1.800000072E-1,-4.500000179E-2,-1.450000048E0
4.991118578E0,2.409999967E-1,3.000000026E-3,-1.353000045E0
4.996106326E0,3.310000002E-1,8.000000380E-3,-1.222000003E0
5.001094021E0,3.970000148E-1,-3.799999878E-2,-1.144999981E0
5.006081713E0,4.250000119E-1,-1.190000027E-1,-1.062999964E0
5.011069410E0,4.090000093E-1,-1.829999983E-1,-9.520000219E-1
5.016057103E0,3.980000019E-1,-2.210000008E-1,-8.169999719E-1
5.021044790E0,4.499999881E-1,-2.549999952E-1,-6.510000229E-1
5.026032482E0,4.749999940E-1,-2.649999857E-1,-4.480000138E-1
5.031020407E0,4.889999926E-1,-2.639999986E-1,-2.569999993E-1
5.036008102E0,4.909999967E-1,-2.630000114E-1,-2.899999917E-2
5.040995794E0,4.379999936E-1,-2.560000122E-1,9.399999678E-2
5.045983486E0,4.000000060E-1,-2.599999905E-1,8.299999684E-2
5.050971179E0,4.219999909E-1,-2.460000068E-1,7.599999756E-2
5.055958956E0,4.289999902E-1,-2.259999961E-1,5.900000036E-2
5.060946650E0,4.199999869E-1,-2.150000036E-1,1.799999923E-2
5.065934342E0,3.759999871E-1,-1.809999943E-1,-4.600000009E-2
5.070922035E0,3.429999948E-1,-1.659999937E-1,-1.250000000E-1
5.075909727E0,3.490000069E-1,-1.630000025E-1,-2.389999926E-1
5.080897419E0,3.249999881E-1,-1.979999989E-1,-3.659999967E-1
5.085885340E0,1.949999928E-1,-1.850000024E-1,-4.440000057E-1
5.090873030E0,-2.099999972E-2,-1.480000019E-1,-5.920000076E-1
5.095860722E0,1.469999999E-1,4.999999888E-3,-5.350000262E-1
5.100848424E0,9.399999678E-2,-5.600000173E-2,-8.230000138E-1
5.105836117E0,5.400000140E-2,5.839999914E-1,-6.330000162E-1
5.110823823E0,2.370000035E-1,1.879999936E-1,-7.570000291E-1
5.115811515E0,4.059999883E-1,-2.380000055E-1,-8.320000172E-1
5.120799254E0,4.909999967E-1,-4.510000050E-1,-1.054000020E0
5.125786948E0,4.199999869E-1,-4.040000141E-1,-1.175999999E0
5.130774626E0,6.980000138E-1,3.000000119E-1,-1.215000033E0
5.135762319E0,9.099999815E-2,8.299999684E-2,-9.969999790E-1
5.140750006E0,-3.689999878E-1,1.289999932E-1,-1.240000010E0
5.145737927E0,-2.109999955E-1,1.260000020E-1,-1.156000018E0
5.150725621E0,3.000000026E-3,5.099999905E-2,-1.062999964E0
5.155713314E0,2.070000023E-1,-1.799999923E-2,-1.052999973E0
5.160701006E0,4.029999971E-1,-1.500000060E-1,-1.023000002E0
5.165688713E0,3.569999933E-1,-5.700000003E-2,-9.980000257E-1
5.170676406E0,8.080000281E-1,2.259999961E-1,-8.119999766E-1
5.175664173E0,9.679999948E-1,4.140000045E-1,-6.090000272E-1
5.180651866E0,7.879999876E-1,5.230000019E-1,-3.379999995E-1
5.185639558E0,1.459999979E-1,5.730000138E-1,4.300000146E-2
5.190627247E0,-3.350000083E-1,6.269999743E-1,1.169999987E-1
5.195614939E0,3.269999921E-1,6.549999714E-1,-6.100000069E-2
5.200602865E0,8.460000157E-1,4.990000129E-1,6.499999762E-2
5.205590329E0,1.019000053E0,2.840000093E-1,3.319999874E-1
5.210578245E0,7.730000019E-1,1.389999986E-1,3.400000036E-1
5.215565939E0,4.250000119E-1,1.299999952E-1,3.829999864E-1
5.220553621E0,3.019999862E-1,2.380000055E-1,4.920000136E-1
5.225541314E0,3.269999921E-1,3.970000148E-1,6.480000019E-1
5.230529006E0,3.479999900E-1,5.070000291E-1,7.120000124E-1
5.235516703E0,4.239999950E-1,5.490000248E-1,7.049999833E-1
5.240504396E0,4.850000143E-1,5.329999924E-1,7.409999967E-1
5.245492153E0,2.709999979E-1,5.550000072E-1,7.379999757E-1
5.250479847E0,-1.519999951E-1,6.539999843E-1,7.910000086E-1
5.255467554E0,-1.239999980E-1,7.229999900E-1,6.940000057E-1
5.260455246E0,-3.200000152E-2,7.289999723E-1,7.049999833E-1
5.265442938E0,-9.799999744E-2,6.930000186E-1,6.899999976E-1
5.270430850E0,-1.449999958E-1,6.499999762E-1,6.150000095E-1
5.275418545E0,-1.199999973E-1,6.169999838E-1,5.320000052E-1
5.280406237E0,-3.299999982E-2,5.320000052E-1,5.870000124E-1
5.285393929E0,-2.400000021E-2,4.850000143E-1,6.570000052E-1
5.290381622E0,-6.100000069E-2,4.449999928E-1,6.579999924E-1
5.295369369E0,-7.199999690E-2,4.210000038E-1,7.459999919E-1
5.300357063E0,-5.700000003E-2,4.370000064E-1,6.409999728E-1
5.305344756E0,-7.299999893E-2,4.620000124E-1,6.349999905E-1
5.310332448E0,-8.900000155E-2,5.109999776E-1,6.729999781E-1
5.315320145E0,-1.260000020E-1,5.120000243E-1,5.550000072E-1
5.320307837E0,-1.089999974E-1,5.059999824E-1,5.509999990E-1
5.325295529E0,-1.580000073E-1,5.040000081E-1,5.640000105E-1
5.330283451E0,-1.840000004E-1,5.389999747E-1,5.180000067E-1
5.335271145E0,-2.599999905E-1,5.210000277E-1,6.560000181E-1
5.340258848E0,-3.549999893E-1,4.930000007E-1,7.390000224E-1
5.345246540E0,-4.070000052E-1,4.639999866E-1,9.200000167E-1
5.350234312E0,-2.500000000E-1,4.189999998E-1,1.021999955E0
5.355222006E0,-2.419999987E-1,4.020000100E-1,1.248000026E0
5.360209713E0,-2.360000014E-1,3.980000019E-1,1.366000056E0
5.365197405E0,-2.000000030E-1,3.930000067E-1,1.483999968E0
5.370185097E0,-1.720000058E-1,3.720000088E-1,1.557999969E0
5.375172805E0,-2.119999975E-1,3.610000014E-1,1.618000031E0
5.380160497E0,-3.190000057E-1,2.440000027E-1,1.618000031E0
5.385148418E0,-4.079999924E-1,8.600000292E-2,1.639000058E0
5.390136122E0,-4.740000069E-1,-5.499999970E-2,1.633000016E0
5.395123815E0,-4.120000005E-1,-1.319999993E-1,1.592000008E0
5.400111492E0,-4.059999883E-1,-1.689999998E-1,1.488000035E0
5.405099184E0,-3.319999874E-1,-1.650000066E-1,1.453999996E0
5.410086877E0,-4.040000141E-1,-2.280000001E-1,1.302999973E0
5.415074644E0,-3.989999890E-1,-3.050000072E-1,1.215000033E0
5.420062348E0,-3.810000122E-1,-4.259999990E-1,1.016000032E0
5.425050041E0,-2.300000042E-1,-5.360000134E-1,8.970000148E-1
5.430037733E0,-1.909999996E-1,-5.989999771E-1,7.379999757E-1
5.435025654E0,-6.700000167E-2,-6.000000238E-1,5.180000067E-1
5.440013118E0,6.599999964E-2,-6.119999886E-1,2.860000134E-1
5.445001039E0,1.260000020E-1,-6.480000019E-1,1.000000047E-3
5.449988714E0,5.600000173E-2,-6.909999847E-1,-3.089999855E-1
5.454976406E0,2.980000079E-1,-6.679999828E-1,-3.240000010E-1
5.459964094E0,3.070000112E-1,-5.799999833E-1,-5.440000296E-1
5.464951861E0,2.759999931E-1,-4.959999919E-1,-7.469999790E-1
5.469939555E0,2.689999938E-1,-4.740000069E-1,-1.065000057E0
5.474927171E0,1.570000052E-1,-5.189999938E-1,-1.350000024E0
5.479914943E0,3.210000098E-1,-4.860000014E-1,-1.521999955E0
5.484902637E0,3.280000091E-1,-3.409999907E-1,-1.733000040E0
5.489890329E0,2.829999924E-1,-2.000000030E-1,-1.909000039E0
5.494878022E0,2.529999912E-1,-1.080000028E-1,-2.032999992E0
5.499865943E0,2.829999924E-1,-1.030000001E-1,-2.088000059E0
5.504853646E0,3.989999890E-1,-1.379999965E-1,-2.015000105E0
5.509841338E0,4.490000010E-1,-1.389999986E-1,-1.983000040E0
5.514829031E0,4.659999907E-1,-1.230000034E-1,-1.899000049E0
5.519816798E0,4.480000138E-1,-1.129999980E-1,-1.784999967E0
5.524804415E0,4.230000079E-1,-1.159999967E-1,-1.641000032E0
5.529792188E0,3.630000055E-1,-1.270000041E-1,-1.500000000E0
5.534779882E0,3.479999900E-1,-1.700000018E-1,-1.348000050E0
5.539767574E0,3.630000055E-1,-1.040000021E-1,-1.139000058E0
5.544755267E0,9.300000221E-2,-9.200000018E-2,-9.990000129E-1
5.549743173E0,1.350000054E-1,-2.599999905E-1,-6.610000134E-1
5.554730867E0,2.020000070E-1,-3.129999936E-1,-4.560000002E-1
5.559718549E0,1.369999945E-1,-3.709999919E-1,-1.749999970E-1
5.564706242E0,2.899999917E-2,-3.810000122E-1,1.710000038E-1
5.569693934E0,-1.909999996E-1,-4.199999869E-1,2.630000114E-1
5.574681626E0,-3.149999976E-1,-2.489999980E-1,4.289999902E-1
5.579669394E0,-5.929999948E-1,-3.490000069E-1,3.540000021E-1
5.584657088E0,-7.189999819E-1,-5.640000105E-1,3.659999967E-1
5.589644780E0,-6.269999743E-1,-6.240000129E-1,2.750000060E-1
5.594632473E0,-5.279999971E-1,-6.209999919E-1,1.239999980E-1
5.599620408E0,-4.670000076E-1,-6.179999709E-1,1.199999973E-1
5.604608102E0,-4.059999883E-1,-6.050000191E-1,5.000000075E-2
5.609595780E0,-4.359999895E-1,-5.910000205E-1,-1.469999999E-1
5.614583473E0,-4.499999881E-1,-5.839999914E-1,-3.580000103E-1
5.619571174E0,-4.480000138E-1,-5.609999895E-1,-5.180000067E-1
5.624558866E0,-4.480000138E-1,-4.909999967E-1,-6.769999862E-1
5.629546633E0,-3.970000148E-1,-4.420000017E-1,-8.190000057E-1
5.634534333E0,-3.840000033E-1,-3.770000041E-1,-8.830000162E-1
5.639522025E0,-3.689999878E-1,-3.400000036E-1,-9.290000200E-1
5.644509717E0,-3.560000062E-1,-2.660000026E-1,-9.459999800E-1
5.649497410E0,-3.670000136E-1,-1.780000031E-1,-9.940000176E-1
5.654485102E0,-3.359999955E-1,-8.299999684E-2,-9.850000143E-1
5.659473004E0,-2.949999869E-1,-2.999999933E-2,-1.014000058E0
5.664460698E0,-2.529999912E-1,2.000000095E-3,-1.021999955E0
5.669448391E0,-2.489999980E-1,1.000000047E-3,-9.490000010E-1
5.674436097E0,-1.969999969E-1,2.199999988E-2,-8.859999776E-1
5.679423789E0,-1.250000000E-1,5.200000107E-2,-7.850000262E-1
5.684411492E0,-8.799999952E-2,6.800000370E-2,-6.510000229E-1
5.689399184E0,-9.899999946E-2,7.000000030E-2,-4.519999921E-1
5.694386956E0,-1.140000001E-1,6.700000167E-2,-2.919999957E-1
5.699374651E0,-1.250000000E-1,4.800000042E-2,-1.340000033E-1
5.704362343E0,-2.020000070E-1,2.099999972E-2,2.199999988E-2
5.709350034E0,-2.610000074E-1,2.999999933E-2,1.570000052E-1
5.714337955E0,-2.829999924E-1,7.800000161E-2,3.019999862E-1
5.719325400E0,-2.280000001E-1,1.289999932E-1,4.269999862E-1
5.724313321E0,-2.000000030E-1,1.630000025E-1,4.889999926E-1
5.729301030E0,-1.659999937E-1,1.449999958E-1,5.749999881E-1
5.734288723E0,-1.630000025E-1,1.490000039E-1,6.000000238E-1
5.739276415E0,-2.010000050E-1,1.720000058E-1,5.680000186E-1
5.744264182E0,-1.819999963E-1,2.370000035E-1,6.039999723E-1
5.749251877E0,-1.889999956E-1,3.009999990E-1,6.090000272E-1
5.754239569E0,-1.860000044E-1,3.079999983E-1,6.190000176E-1
5.759227490E0,-1.870000064E-1,3.249999881E-1,5.759999752E-1
5.764215169E0,-1.340000033E-1,3.630000055E-1,4.990000129E-1
5.769202862E0,-9.799999744E-2,4.609999955E-1,4.300000072E-1
5.774190568E0,-9.499999881E-2,5.260000229E-1,3.860000074E-1
5.779178260E0,-1.389999986E-1,5.759999752E-1,3.429999948E-1
5.784165953E0,-1.500000060E-1,6.250000000E-1,3.639999926E-1
5.789153631E0,-1.459999979E-1,6.259999871E-1,4.140000045E-1
5.794141398E0,-2.029999942E-1,6.179999709E-1,4.329999983E-1
5.799129097E0,-2.599999905E-1,5.649999976E-1,5.320000052E-1
5.804116790E0,-3.190000057E-1,4.769999981E-1,5.799999833E-1
5.809104711E0,-1.630000025E-1,4.560000002E-1,9.549999833E-1
5.814092159E0,-2.649999857E-1,4.379999936E-1,8.939999938E-1
5.819080080E0,-4.760000110E-1,3.790000081E-1,8.199999928E-1
5.824067775E0,-8.119999766E-1,2.199999988E-1,5.680000186E-1
5.829055467E0,-5.920000076E-1,2.779999971E-1,9.330000281E-1
5.834043155E0,-6.529999971E-1,2.890000045E-1,5.839999914E-1
5.839030923E0,-4.709999859E-1,3.670000136E-1,4.799999893E-1
5.844018617E0,-4.440000057E-1,4.239999950E-1,3.059999943E-1
5.849006318E0,-4.050000012E-1,4.230000079E-1,6.199999899E-2
5.853994011E0,-3.770000041E-1,3.849999905E-1,-1.059999987E-1
5.858981919E0,-6.800000370E-2,4.210000038E-1,1.021000028E0
5.863969382E0,-2.750000060E-1,-1.110000014E-1,1.194000006E0
5.868957303E0,-2.750000060E-1,1.689999998E-1,6.100000069E-2
5.873945002E0,-1.490000039E-1,5.070000291E-1,-7.509999871E-1
5.878932694E0,-7.500000298E-2,6.729999781E-1,-6.259999871E-1
5.883920382E0,-2.109999955E-1,6.399999857E-1,-2.380000055E-1
5.888908150E0,-3.030000031E-1,5.770000219E-1,8.399999887E-2
5.893895771E0,-2.189999968E-1,4.900000095E-1,2.969999909E-1
5.898883538E0,-1.500000060E-1,4.760000110E-1,6.110000014E-1
5.903871232E0,-2.520000041E-1,4.460000098E-1,5.370000005E-1
5.908858925E0,-1.829999983E-1,3.989999890E-1,6.729999781E-1
5.913846617E0,-2.090000063E-1,3.779999912E-1,8.059999943E-1
5.918834524E0,-2.569999993E-1,3.059999943E-1,1.223000050E0
5.923822219E0,-8.900000155E-2,2.070000023E-1,1.889999986E0
5.928809911E0,-8.100000024E-2,3.299999982E-2,2.026999950E0
5.933797608E0,-8.900000155E-2,-1.509999931E-1,2.127000093E0
5.938785301E0,-6.899999827E-2,-2.849999964E-1,2.111999989E0
5.943772993E0,3.000000026E-3,-3.199999928E-1,1.978000045E0
5.948760754E0,7.500000298E-2,-2.939999998E-1,1.631000042E0
5.953748448E0,1.770000011E-1,-2.700000107E-1,1.440000057E0
5.958736146E0,2.389999926E-1,-2.960000038E-1,1.240000010E0
5.963724067E0,2.029999942E-1,-3.310000002E-1,8.750000000E-1
5.968711761E0,1.720000058E-1,-3.659999967E-1,5.490000248E-1
5.973699453E0,1.289999932E-1,-3.600000143E-1,2.049999982E-1
5.978687146E0,1.949999928E-1,-3.030000031E-1,-7.800000161E-2
5.983674922E0,-2.489999980E-1,-1.790000051E-1,-4.880000055E-1
5.988662539E0,-1.550000012E-1,-1.580000073E-1,-8.980000019E-1
5.993650317E0,1.089999974E-1,-1.650000066E-1,-1.126000047E0
5.998638011E0,4.819999933E-1,-2.870000005E-1,-1.098000050E0
6.003625703E0,5.559999943E-1,-4.379999936E-1,-1.205999970E0
6.008613401E0,5.339999795E-1,-5.630000234E-1,-1.304000020E0
6.013601322E0,6.039999723E-1,-5.860000253E-1,-1.379999995E0
6.018588996E0,6.549999714E-1,-5.820000172E-1,-1.476999998E0
6.023576688E0,6.930000186E-1,-4.939999878E-1,-1.526000023E0
6.028564381E0,6.710000038E-1,-4.410000145E-1,-1.585000038E0
6.033552088E0,7.030000091E-1,-3.970000148E-1,-1.544000030E0
6.038539780E0,7.039999962E-1,-3.689999878E-1,-1.478000045E0
6.043527548E0,6.800000072E-1,-3.350000083E-1,-1.381999969E0
6.048515251E0,6.800000072E-1,-2.969999909E-1,-1.246999979E0
6.053502943E0,6.110000014E-1,-2.829999924E-1,-1.090999961E0
6.058490864E0,5.139999986E-1,-2.380000055E-1,-9.969999790E-1
6.063478559E0,4.469999969E-1,-2.000000030E-1,-8.970000148E-1
6.068466251E0,3.980000019E-1,-1.220000014E-1,-8.019999862E-1
6.073453938E0,2.339999974E-1,-5.099999905E-2,-7.870000005E-1
6.078441631E0,3.599999845E-2,7.100000232E-2,-7.730000019E-1
6.083429323E0,-4.399999976E-1,2.119999975E-1,-8.220000267E-1
6.088417090E0,-9.779999852E-1,3.970000148E-1,-1.016999960E0
6.093404794E0,-1.101999998E0,5.780000091E-1,-1.129999995E0
6.098392487E0,-1.055999994E0,6.370000243E-1,-9.269999862E-1
6.103380179E0,-8.040000200E-1,5.339999795E-1,-2.160000056E-1
6.108367856E0,-5.630000234E-1,3.389999866E-1,-2.700000070E-2
6.113355549E0,-3.089999855E-1,2.349999994E-1,5.900000036E-2
6.118343466E0,2.709999979E-1,3.070000112E-1,5.499999970E-2
6.123331160E0,-3.099999949E-2,-4.510000050E-1,-5.279999971E-1
6.128318880E0,-1.169999987E-1,-7.039999962E-1,-6.790000200E-1
6.133306648E0,-1.199999973E-1,-7.310000062E-1,-7.749999762E-1
6.138294342E0,-1.630000025E-1,-8.399999738E-1,-8.320000172E-1
6.143282034E0,1.829999983E-1,-7.250000238E-1,-7.730000019E-1
6.148269727E0,6.790000200E-1,-5.970000029E-1,-5.929999948E-1
6.153257434E0,1.006000042E0,-5.389999747E-1,-4.359999895E-1
6.158245126E0,1.131999969E0,-5.920000076E-1,-4.350000024E-1
6.163233066E0,1.090000033E0,-6.750000119E-1,-4.609999955E-1
6.168220761E0,1.019000053E0,-7.250000238E-1,-3.899999857E-1
6.173208439E0,9.679999948E-1,-6.949999928E-1,-2.700000107E-1
6.178196131E0,9.390000105E-1,-6.190000176E-1,-1.199999973E-1
6.183183824E0,8.799999952E-1,-5.220000148E-1,4.500000179E-2
6.188171591E0,7.799999714E-1,-4.189999998E-1,1.829999983E-1
6.193159285E0,6.819999814E-1,-3.240000010E-1,2.479999959E-1
6.198146987E0,5.239999890E-1,-2.020000070E-1,2.899999917E-1
6.203134679E0,3.079999983E-1,-8.699999750E-2,3.109999895E-1
6.208122629E0,1.909999996E-1,8.000000380E-3,2.910000086E-1
6.213110323E0,1.930000037E-1,8.500000089E-2,3.030000031E-1
6.218098011E0,2.140000015E-1,1.010000035E-1,3.269999921E-1
6.223085703E0,1.959999949E-1,1.010000035E-1,2.980000079E-1
6.228073470E0,1.659999937E-1,8.299999684E-2,2.230000049E-1
6.233061079E0,1.979999989E-1,6.400000304E-2,1.529999971E-1
6.238048846E0,2.829999924E-1,6.100000069E-2,3.099999949E-2
6.243036540E0,4.020000100E-1,8.299999684E-2,-1.030000001E-1
6.248024232E0,5.419999957E-1,9.899999946E-2,-1.780000031E-1
6.253012153E0,6.330000162E-1,1.019999981E-1,-1.899999976E-1
6.257999819E0,6.549999714E-1,1.059999987E-1,-2.939999998E-1
6.262987511E0,6.529999971E-1,1.000000015E-1,-3.729999959E-1
6.267975183E0,6.309999824E-1,1.360000074E-1,-3.210000098E-1
6.272962876E0,5.989999771E-1,2.080000043E-1,-2.860000134E-1
6.277950634E0,5.709999800E-1,2.790000141E-1,-2.339999974E-1
6.282938328E0,5.180000067E-1,3.350000083E-1,-1.640000045E-1
6.287926021E0,4.970000088E-1,3.519999981E-1,1.300000027E-2
6.292913746E0,3.650000095E-1,3.519999981E-1,1.700000018E-1
6.297901667E0,2.649999857E-1,3.350000083E-1,3.170000017E-1
6.302889361E0,1.940000057E-1,3.009999990E-1,4.990000129E-1
6.307877050E0,1.729999930E-1,2.649999857E-1,6.629999876E-1
6.312864742E0,2.280000001E-1,2.240000069E-1,6.930000186E-1
6.317852405E0,2.949999869E-1,1.809999943E-1,7.749999762E-1
6.322840098E0,3.490000069E-1,1.230000034E-1,8.090000153E-1
6.327827865E0,3.650000095E-1,8.100000024E-2,7.969999909E-1
6.332815559E0,3.249999881E-1,2.700000070E-2,8.309999704E-1
6.337803237E0,3.170000017E-1,4.199999943E-2,8.939999938E-1
6.342790929E0,3.170000017E-1,5.700000003E-2,8.840000033E-1
6.347778621E0,3.379999995E-1,5.499999970E-2,8.370000124E-1
6.352766528E0,3.810000122E-1,4.800000042E-2,7.870000005E-1
6.357754223E0,4.329999983E-1,5.499999970E-2,7.080000043E-1
6.362741920E0,4.399999976E-1,7.100000232E-2,5.870000124E-1
6.367729612E0,3.980000019E-1,1.270000041E-1,5.389999747E-1
6.372717379E0,3.280000091E-1,1.420000046E-1,5.130000114E-1
6.377705074E0,3.100000024E-1,1.439999938E-1,5.019999743E-1
6.382692766E0,3.149999976E-1,1.819999963E-1,4.920000136E-1
6.387680687E0,2.860000134E-1,2.109999955E-1,4.280000031E-1
6.392668151E0,2.409999967E-1,2.590000033E-1,4.460000098E-1
6.397656062E0,1.459999979E-1,2.910000086E-1,5.590000153E-1
6.402643756E0,0.000000000E0,2.980000079E-1,7.250000238E-1
6.407631448E0,-1.500000060E-1,2.899999917E-1,9.210000038E-1
6.412619136E0,-2.310000062E-1,2.680000067E-1,1.054999948E0
6.417606903E0,-2.829999924E-1,2.360000014E-1,1.241999984E0
6.422594592E0,-3.659999967E-1,1.519999951E-1,1.455000043E0
6.427582285E0,-4.729999900E-1,1.199999973E-1,1.643000007E0
6.432570221E0,-5.809999704E-1,1.110000014E-1,1.791000009E0
6.437557915E0,-6.430000067E-1,1.209999993E-1,1.822999954E0
6.442545607E0,-6.729999781E-1,1.309999973E-1,1.750000000E0
6.447533309E0,-6.899999976E-1,1.389999986E-1,1.684999943E0
6.452521001E0,-7.969999909E-1,1.379999965E-1,1.562999964E0
6.457508787E0,-8.610000014E-1,1.389999986E-1,1.379999995E0
6.462496482E0,-8.439999819E-1,1.959999949E-1,1.205999970E0
6.467484189E0,-7.559999824E-1,2.479999959E-1,9.760000110E-1
6.472471881E0,-6.269999743E-1,2.809999883E-1,6.449999809E-1
6.477459783E0,-5.080000162E-1,3.050000072E-1,2.879999876E-1
6.482447247E0,-4.390000105E-1,2.899999917E-1,-4.100000113E-2
6.487435168E0,-4.309999943E-1,2.430000007E-1,-2.840000093E-1
6.492422862E0,-4.000000060E-1,1.909999996E-1,-4.569999874E-1
6.497410555E0,-3.409999907E-1,1.599999964E-1,-5.590000153E-1
6.502398322E0,-3.039999902E-1,1.089999974E-1,-6.150000095E-1
6.507386011E0,-3.499999940E-1,5.799999833E-2,-6.439999938E-1
6.512373703E0,-4.830000103E-1,-3.099999949E-2,-5.720000267E-1
6.517361391E0,-5.509999990E-1,-8.600000292E-2,-4.230000079E-1
6.522349312E0,-5.360000134E-1,-1.529999971E-1,-2.460000068E-1
6.527337006E0,-4.830000103E-1,-2.280000001E-1,-8.799999952E-2
6.532324708E0,-4.760000110E-1,-3.009999990E-1,8.799999952E-2
6.537312410E0,-4.939999878E-1,-3.779999912E-1,2.119999975E-1
6.542300102E0,-4.269999862E-1,-4.499999881E-1,2.020000070E-1
6.547287869E0,-2.879999876E-1,-5.109999776E-1,1.120000035E-1
6.552275564E0,-7.500000298E-2,-5.450000167E-1,-2.099999972E-2
6.557263256E0,8.399999887E-2,-5.830000043E-1,-2.179999948E-1
6.562250948E0,2.169999927E-1,-5.910000205E-1,-4.420000017E-1
6.567238631E0,2.840000093E-1,-5.720000267E-1,-6.259999871E-1
6.572226552E0,3.269999921E-1,-5.019999743E-1,-8.199999928E-1
6.577214237E0,3.589999974E-1,-4.189999998E-1,-9.720000029E-1
6.582201929E0,3.490000069E-1,-3.389999866E-1,-1.060999990E0
6.587189697E0,3.019999862E-1,-2.879999876E-1,-1.151000023E0
6.592177405E0,2.029999942E-1,-2.360000014E-1,-1.202999949E0
6.597165102E0,8.600000292E-2,-2.000000030E-1,-1.208999991E0
6.602152795E0,-3.799999878E-2,-1.959999949E-1,-1.213999987E0
6.607140487E0,-1.360000074E-1,-2.029999942E-1,-1.195000052E0
6.612128422E0,-2.349999994E-1,-1.819999963E-1,-1.184000015E0
6.617116116E0,-3.289999962E-1,-1.809999943E-1,-1.136999965E0
6.622103809E0,-4.339999855E-1,-1.739999950E-1,-9.860000014E-1
6.627091487E0,-4.930000007E-1,-1.749999970E-1,-8.880000114E-1
6.632079254E0,-5.180000067E-1,-1.749999970E-1,-8.450000286E-1
6.637066949E0,-5.279999971E-1,-2.029999942E-1,-8.059999943E-1
6.642054641E0,-5.099999905E-1,-2.199999988E-1,-7.670000196E-1
6.647042333E0,-4.099999964E-1,-2.479999959E-1,-8.090000153E-1
6.652030026E0,-3.009999990E-1,-2.730000019E-1,-7.559999824E-1
6.657017947E0,-1.930000037E-1,-2.910000086E-1,-6.990000010E-1
6.662005617E0,-1.140000001E-1,-3.359999955E-1,-6.970000267E-1
6.666993309E0,-4.899999872E-2,-3.650000095E-1,-7.279999852E-1
6.671981076E0,2.899999917E-2,-3.779999912E-1,-7.620000243E-1
6.676968771E0,1.459999979E-1,-3.770000041E-1,-7.990000248E-1
6.681956453E0,2.730000019E-1,-3.740000129E-1,-8.040000200E-1
6.686944145E0,3.989999890E-1,-3.639999926E-1,-8.059999943E-1
6.691932067E0,4.510000050E-1,-3.600000143E-1,-8.190000057E-1
6.696919530E0,4.510000050E-1,-3.610000014E-1,-8.029999733E-1
6.701907451E0,4.259999990E-1,-3.829999864E-1,-7.609999776E-1
6.706895165E0,4.569999874E-1,-3.689999878E-1,-7.059999704E-1
6.711882858E0,5.090000033E-1,-3.319999874E-1,-6.169999838E-1
6.716870625E0,5.429999828E-1,-2.840000093E-1,-5.389999747E-1
6.721858319E0,5.149999857E-1,-2.639999986E-1,-4.560000002E-1
6.726846012E0,4.390000105E-1,-2.569999993E-1,-3.440000117E-1
6.731833933E0,3.819999993E-1,-2.230000049E-1,-2.689999938E-1
6.736821396E0,3.379999995E-1,-1.909999996E-1,-2.249999940E-1
6.741809317E0,3.310000002E-1,-1.720000058E-1,-1.949999928E-1
6.746797012E0,3.240000010E-1,-1.340000033E-1,-1.439999938E-1
6.751784718E0,2.709999979E-1,-1.129999980E-1,-8.699999750E-2
6.756772410E0,1.110000014E-1,-7.100000232E-2,4.000000190E-3
6.761760174E0,-9.999999776E-3,-4.100000113E-2,5.499999970E-2
6.766747868E0,-4.199999943E-2,3.299999982E-2,7.299999893E-2
6.771735540E0,-6.800000370E-2,1.049999967E-1,6.599999964E-2
6.776723233E0,-1.270000041E-1,1.620000005E-1,1.600000076E-2
6.781710925E0,-1.940000057E-1,2.099999934E-1,-5.299999937E-2
6.786698846E0,-2.240000069E-1,2.489999980E-1,-1.289999932E-1
6.791686540E0,-2.080000043E-1,2.730000019E-1,-1.850000024E-1
6.796674233E0,-1.909999996E-1,2.720000148E-1,-1.519999951E-1
6.801661925E0,-1.790000051E-1,2.829999924E-1,-1.770000011E-1
6.806649617E0,-1.969999969E-1,2.969999909E-1,-1.410000026E-1
6.811637390E0,-1.959999949E-1,3.160000145E-1,-1.299999952E-1
6.816625084E0,-1.949999928E-1,3.659999967E-1,-9.799999744E-2
6.821612795E0,-2.109999955E-1,4.250000119E-1,-7.100000232E-2
6.826600716E0,-3.219999969E-1,4.889999926E-1,-7.000000216E-3
6.831588392E0,-4.699999988E-1,5.270000100E-1,9.099999815E-2
6.836576084E0,-5.929999948E-1,5.649999976E-1,2.169999927E-1
6.841563851E0,-6.729999781E-1,5.630000234E-1,3.700000048E-1
6.846551564E0,-7.609999776E-1,5.649999976E-1,5.149999857E-1
6.851539257E0,-8.190000057E-1,6.019999981E-1,6.430000067E-1
6.856526964E0,-8.700000048E-1,6.169999838E-1,7.749999762E-1
6.861514656E0,-9.139999747E-1,6.259999871E-1,8.560000062E-1
6.866502577E0,-9.689999819E-1,6.169999838E-1,9.369999766E-1
6.871490300E0,-1.008000016E0,6.010000110E-1,9.850000143E-1
6.876477992E0,-1.054000020E0,5.649999976E-1,9.850000143E-1
6.881465704E0,-1.069000006E0,5.189999938E-1,9.969999790E-1
6.886453472E0,-1.111999989E0,4.819999933E-1,1.026999950E0
6.891441150E0,-1.167000055E0,4.469999969E-1,1.044000030E0
6.896428842E0,-1.279999971E0,4.070000052E-1,1.128000021E0
6.901416763E0,-1.388000011E0,3.829999864E-1,1.194000006E0
6.906404213E0,-1.409000039E0,3.310000002E-1,1.253999949E0
6.911392134E0,-1.348999977E0,2.669999897E-1,1.338000059E0
6.916379813E0,-1.223000050E0,1.879999936E-1,1.409000039E0
6.921367506E0,-1.016999960E0,9.899999946E-2,1.358999968E0
6.926355273E0,-7.940000296E-1,0.000000000E0,1.271000028E0
6.931342958E0,-5.370000005E-1,-1.040000021E-1,1.144999981E0
6.936330651E0,-2.879999876E-1,-1.800000072E-1,1.023000002E0
6.941318548E0,-3.700000048E-2,-2.399999946E-1,9.079999924E-1
6.946306011E0,1.739999950E-1,-2.759999931E-1,8.149999976E-1
6.951293932E0,3.389999866E-1,-3.009999990E-1,7.969999909E-1
6.956281627E0,4.830000103E-1,-3.330000043E-1,7.699999809E-1
6.961269319E0,5.970000029E-1,-3.370000124E-1,7.350000143E-1
6.966257086E0,6.790000200E-1,-3.560000062E-1,7.369999886E-1
6.971244781E0,6.790000200E-1,-3.589999974E-1,7.239999771E-1
6.976232473E0,6.620000005E-1,-3.370000124E-1,7.030000091E-1
6.981220394E0,6.330000162E-1,-3.389999866E-1,6.980000138E-1
6.986207857E0,6.129999757E-1,-2.919999957E-1,6.389999986E-1
6.991195759E0,5.690000057E-1,-2.469999939E-1,5.500000119E-1
6.996183453E0,4.900000095E-1,-2.160000056E-1,4.620000124E-1
7.001171140E0,3.970000148E-1,-1.860000044E-1,4.180000126E-1
7.006158907E0,3.249999881E-1,-1.570000052E-1,3.899999857E-1
7.011146602E0,2.240000069E-1,-1.199999973E-1,4.129999876E-1
7.016134294E0,8.900000155E-2,-7.400000095E-2,4.589999914E-1
7.021121986E0,-7.699999958E-2,-7.100000232E-2,5.429999828E-1
7.026109699E0,-1.860000044E-1,-8.500000089E-2,5.299999714E-1
7.031097620E0,-2.540000081E-1,-8.200000226E-2,5.120000243E-1
7.036085314E0,-3.070000112E-1,-7.699999958E-2,4.790000021E-1
7.041073006E0,-3.680000007E-1,-5.000000075E-2,4.149999917E-1
7.046060699E0,-4.280000031E-1,-4.199999943E-2,3.359999955E-1
7.051048456E0,-4.230000079E-1,-2.600000054E-2,2.249999940E-1
7.056036150E0,-3.589999974E-1,2.700000070E-2,2.999999933E-2
7.061023828E0,-2.989999950E-1,9.399999678E-2,-2.010000050E-1
7.066011749E0,-1.969999969E-1,1.650000066E-1,-4.519999921E-1
7.070999443E0,-1.000000015E-1,2.179999948E-1,-7.580000162E-1
7.075987135E0,-4.999999888E-3,2.569999993E-1,-1.042999983E0
7.080974828E0,5.200000107E-2,2.930000126E-1,-1.338000059E0
7.085962506E0,8.200000226E-2,2.980000079E-1,-1.583999991E0
7.090950273E0,1.120000035E-1,2.899999917E-1,-1.756999969E0
7.095937982E0,1.599999964E-1,2.989999950E-1,-1.851999998E0
7.100925674E0,2.240000069E-1,2.910000086E-1,-1.950999975E0
7.105913366E0,2.669999897E-1,2.960000038E-1,-2.019999981E0
7.110901045E0,2.380000055E-1,2.899999917E-1,-2.056999922E0
7.115888966E0,2.210000008E-1,2.660000026E-1,-2.062999964E0
7.120876669E0,1.899999976E-1,2.460000068E-1,-2.029000044E0
7.125864361E0,1.500000060E-1,2.290000021E-1,-1.922000051E0
7.130852133E0,1.490000039E-1,2.179999948E-1,-1.786999941E0
7.135839828E0,1.570000052E-1,1.739999950E-1,-1.631999969E0
7.140827520E0,1.469999999E-1,1.099999994E-1,-1.460999966E0
7.145815427E0,1.589999944E-1,1.499999966E-2,-1.292999983E0
7.150803122E0,1.539999992E-1,-8.399999887E-2,-1.118999958E0
7.155790828E0,2.020000070E-1,-1.689999998E-1,-9.390000105E-1
7.160778520E0,2.339999974E-1,-2.689999938E-1,-7.179999948E-1
7.165766208E0,2.639999986E-1,-3.700000048E-1,-5.109999776E-1
7.170753975E0,3.030000031E-1,-4.359999895E-1,-2.730000019E-1
7.175741669E0,3.650000095E-1,-4.810000062E-1,-5.600000173E-2
7.180729366E0,4.029999971E-1,-5.279999971E-1,1.099999994E-1
7.185717287E0,4.519999921E-1,-5.799999833E-1,2.509999871E-1
7.190704765E0,5.000000000E-1,-6.280000210E-1,3.129999936E-1
7.195692686E0,5.569999814E-1,-6.420000196E-1,3.350000083E-1
7.200680380E0,6.100000143E-1,-6.729999781E-1,3.230000138E-1
7.205668059E0,6.430000067E-1,-6.660000086E-1,3.160000145E-1
7.210655826E0,6.890000105E-1,-6.439999938E-1,2.809999883E-1
7.215643505E0,7.269999981E-1,-6.050000191E-1,2.099999934E-1
7.220631198E0,7.599999905E-1,-5.799999833E-1,1.330000013E-1
7.225619119E0,7.799999714E-1,-5.669999719E-1,3.900000080E-2
7.230606582E0,7.730000019E-1,-5.070000291E-1,-2.300000004E-2
7.235594503E0,7.220000029E-1,-4.440000057E-1,-7.599999756E-2
7.240582213E0,6.959999800E-1,-3.650000095E-1,-1.140000001E-1
7.245569905E0,7.120000124E-1,-2.969999909E-1,-1.990000010E-1
7.250557672E0,6.899999976E-1,-2.529999912E-1,-2.989999950E-1
7.255545367E0,6.309999824E-1,-2.220000029E-1,-3.899999857E-1
7.260533059E0,5.920000076E-1,-1.749999970E-1,-4.629999995E-1
7.265520746E0,6.100000143E-1,-1.190000027E-1,-5.239999890E-1
7.270508439E0,5.950000286E-1,-5.700000003E-2,-5.490000248E-1
7.275496360E0,5.049999952E-1,-4.999999888E-3,-5.450000167E-1
7.280484054E0,4.129999876E-1,3.900000080E-2,-5.270000100E-1
7.285471746E0,3.569999933E-1,8.299999684E-2,-5.230000019E-1
7.290459513E0,3.389999866E-1,1.099999994E-1,-4.990000129E-1
7.295447208E0,3.370000124E-1,1.509999931E-1,-4.850000143E-1
7.300434890E0,3.070000112E-1,1.920000017E-1,-4.320000112E-1
7.305422811E0,2.649999857E-1,2.109999955E-1,-3.479999900E-1
7.310410516E0,1.529999971E-1,2.179999948E-1,-2.280000001E-1
7.315398208E0,1.799999923E-2,2.380000055E-1,-6.899999827E-2
7.320385900E0,-4.899999872E-2,3.050000072E-1,8.500000089E-2
7.325373583E0,-7.400000095E-2,3.319999874E-1,2.409999967E-1
7.330361350E0,-1.150000021E-1,3.330000043E-1,3.759999871E-1
7.335349064E0,-1.589999944E-1,3.219999969E-1,4.560000002E-1
7.340336756E0,-1.519999951E-1,2.930000126E-1,4.819999933E-1
7.345324677E0,-7.500000298E-2,2.829999924E-1,4.639999866E-1
7.350312352E0,1.899999939E-2,2.820000052E-1,4.280000031E-1
7.355300044E0,8.399999887E-2,2.610000074E-1,4.269999862E-1
7.360287751E0,1.400000006E-1,2.450000048E-1,4.889999926E-1
7.365275519E0,2.150000036E-1,2.230000049E-1,5.400000215E-1
7.370263213E0,2.300000042E-1,1.879999936E-1,6.639999747E-1
7.375250905E0,2.370000035E-1,1.640000045E-1,7.929999828E-1
7.380238598E0,2.399999946E-1,1.580000073E-1,8.930000067E-1
7.385226519E0,2.220000029E-1,1.529999971E-1,9.769999981E-1
7.390214213E0,9.700000286E-2,1.780000031E-1,1.006000042E0
7.395201905E0,-5.499999970E-2,2.129999995E-1,1.000000000E0
7.400189598E0,-9.799999744E-2,2.829999924E-1,9.409999847E-1
7.405177290E0,-7.599999756E-2,3.619999886E-1,8.809999824E-1
7.410165057E0,-7.599999756E-2,3.989999890E-1,8.370000124E-1
7.415152737E0,-9.300000221E-2,4.440000057E-1,7.879999876E-1
7.420140429E0,-3.299999982E-2,4.740000069E-1,7.170000076E-1
7.425128121E0,2.700000070E-2,4.900000095E-1,6.140000224E-1
7.430115795E0,1.600000076E-2,4.990000129E-1,5.559999943E-1
7.435103716E0,1.400000043E-2,5.009999871E-1,5.230000019E-1
7.440091405E0,2.500000037E-2,4.850000143E-1,5.789999962E-1
7.445079097E0,2.300000004E-2,4.390000105E-1,6.740000248E-1
7.450066835E0,4.999999888E-3,3.950000107E-1,7.919999957E-1
7.455054530E0,-7.100000232E-2,3.300000131E-1,9.800000191E-1
7.460042232E0,-1.010000035E-1,2.709999979E-1,1.174999952E0
7.465030153E0,-1.710000038E-1,2.049999982E-1,1.396000028E0
7.470017848E0,-3.199999928E-1,1.430000067E-1,1.593000054E0
7.475005540E0,-5.740000010E-1,1.030000001E-1,1.784000039E0
7.479993232E0,-7.599999905E-1,1.070000008E-1,1.973000050E0
7.484980943E0,-8.820000291E-1,1.389999986E-1,2.056999922E0
7.489968711E0,-9.810000062E-1,1.550000012E-1,2.030999899E0
7.494956410E0,-1.050999999E0,1.819999963E-1,1.884999990E0
7.499944102E0,-1.036000013E0,2.290000021E-1,1.613000035E0
7.504932023E0,-9.399999976E-1,2.560000122E-1,1.273000002E0
7.509919727E0,-8.169999719E-1,2.759999931E-1,8.709999919E-1
7.514907419E0,-6.970000267E-1,3.070000112E-1,4.480000138E-1
7.519895196E0,-5.749999881E-1,3.079999983E-1,1.700000092E-2
7.524882891E0,-4.269999862E-1,3.120000064E-1,-3.840000033E-1
7.529870583E0,-2.649999857E-1,3.089999855E-1,-6.420000196E-1
7.534858275E0,-1.599999964E-1,2.849999964E-1,-7.950000167E-1
7.539845968E0,-4.800000042E-2,2.300000042E-1,-8.289999962E-1
7.544833874E0,3.400000185E-2,1.439999938E-1,-8.050000072E-1
7.549821568E0,7.699999958E-2,2.000000095E-3,-7.400000095E-1
7.554809260E0,7.500000298E-2,-1.430000067E-1,-6.610000134E-1
7.559797028E0,3.500000015E-2,-3.100000024E-1,-5.989999771E-1
7.564784645E0,1.539999992E-1,-4.930000007E-1,-5.889999866E-1
7.569772403E0,3.379999995E-1,-6.110000014E-1,-6.029999852E-1
7.574760098E0,6.320000291E-1,-7.490000129E-1,-7.829999924E-1
7.579747775E0,9.079999924E-1,-8.399999738E-1,-6.299999952E-1
7.584735696E0,1.093999982E0,-9.100000262E-1,-5.149999857E-1
7.589723395E0,1.200999975E0,-9.800000191E-1,-4.219999909E-1
7.594711088E0,1.256999969E0,-1.054000020E0,-3.009999990E-1
7.599698850E0,1.271999955E0,-1.078999996E0,-1.770000011E-1
7.604686544E0,1.263000011E0,-1.074000001E0,-6.300000101E-2
7.609674236E0,1.225999951E0,-1.032999992E0,-3.099999949E-2
7.614662158E0,1.207000017E0,-9.819999933E-1,-3.500000015E-2
7.619649621E0,1.199000001E0,-9.769999981E-1,-3.700000048E-2
7.624637547E0,1.013000011E0,-8.870000243E-1,6.000000052E-3
7.629625242E0,8.949999809E-1,-8.050000072E-1,-2.000000095E-3
7.634612963E0,7.369999886E-1,-6.899999976E-1,3.400000185E-2
7.639600655E0,5.619999766E-1,-5.649999976E-1,1.200000010E-2
7.644588347E0,4.210000038E-1,-4.309999943E-1,-5.900000036E-2
7.649576105E0,5.299999937E-2,-3.619999886E-1,-1.099999994E-2
7.654563799E0,-1.040000021E-1,-2.319999933E-1,-2.820000052E-1
7.659551477E0,-3.260000050E-1,-7.999999821E-2,-4.149999917E-1
7.664539398E0,-6.520000100E-1,2.099999972E-2,-4.320000112E-1
7.669527083E0,-7.680000067E-1,1.509999931E-1,-6.190000176E-1
7.674514775E0,-1.016999960E0,2.010000050E-1,-5.929999948E-1
7.679502537E0,-1.143000007E0,2.639999986E-1,-6.830000281E-1
7.684490232E0,-1.235999942E0,3.319999874E-1,-7.189999819E-1
7.689477929E0,-1.210999966E0,3.779999912E-1,-7.870000005E-1
7.694465621E0,-1.342000008E0,3.050000072E-1,-8.019999862E-1
7.699453314E0,-1.330000043E0,2.380000055E-1,-8.410000205E-1
7.704441240E0,-1.223000050E0,2.280000001E-1,-8.090000153E-1
7.709428934E0,-1.082000017E0,2.150000036E-1,-7.440000176E-1
7.714416631E0,-9.340000153E-1,1.990000010E-1,-6.909999847E-1
7.719404399E0,-7.929999828E-1,1.340000033E-1,-6.280000210E-1
7.724392093E0,-6.359999776E-1,7.699999958E-2,-5.789999962E-1
7.729379770E0,-4.539999962E-1,1.300000027E-2,-5.740000010E-1
7.734367463E0,-2.500000000E-1,-6.700000167E-2,-5.989999771E-1
7.739355379E0,-6.599999964E-2,-1.010000035E-1,-6.320000291E-1
7.744343073E0,1.080000028E-1,-1.400000006E-1,-6.510000229E-1
7.749330761E0,2.560000122E-1,-1.979999989E-1,-6.549999714E-1
7.754318454E0,3.540000021E-1,-2.430000007E-1,-6.710000038E-1
7.759306221E0,3.639999926E-1,-2.750000060E-1,-6.600000262E-1
7.764293929E0,3.980000019E-1,-2.520000041E-1,-6.179999709E-1
7.769281621E0,4.180000126E-1,-2.360000014E-1,-5.759999752E-1
7.774269543E0,4.300000072E-1,-2.210000008E-1,-5.509999990E-1
7.779257237E0,3.440000117E-1,-2.310000062E-1,-4.869999886E-1
7.784244929E0,2.560000122E-1,-2.249999940E-1,-4.099999964E-1
7.789232646E0,2.300000042E-1,-1.800000072E-1,-3.759999871E-1
7.794220413E0,2.619999945E-1,-1.609999985E-1,-3.659999967E-1
7.799208145E0,2.630000114E-1,-1.589999944E-1,-3.939999938E-1
7.804195837E0,2.349999994E-1,-1.539999992E-1,-4.339999855E-1
7.809183754E0,1.920000017E-1,-1.099999994E-1,-4.160000086E-1
7.814171217E0,2.029999942E-1,-8.799999952E-2,-3.939999938E-1
7.819159124E0,2.240000069E-1,-5.099999905E-2,-3.959999979E-1
7.824146818E0,2.399999946E-1,-1.200000010E-2,-4.180000126E-1
7.829134521E0,2.090000063E-1,1.600000076E-2,-4.740000069E-1
7.834122288E0,2.109999955E-1,4.600000009E-2,-5.170000196E-1
7.839109982E0,2.230000049E-1,5.600000173E-2,-5.019999743E-1
7.844097675E0,1.949999928E-1,9.200000018E-2,-4.819999933E-1
7.849085624E0,1.239999980E-1,6.199999899E-2,-3.989999890E-1
7.854073087E0,-6.000000052E-3,6.499999762E-2,-2.039999962E-1
7.859061008E0,-1.019999981E-1,8.600000292E-2,6.000000052E-3
7.864048689E0,-9.499999881E-2,9.799999744E-2,1.770000011E-1
7.869036381E0,-1.140000001E-1,7.800000161E-2,3.030000031E-1
7.874024148E0,-1.560000032E-1,6.599999964E-2,3.819999993E-1
7.879011843E0,-1.979999989E-1,3.400000185E-2,3.939999938E-1
7.883999535E0,-2.189999968E-1,3.799999878E-2,5.040000081E-1
7.888987193E0,-2.189999968E-1,5.700000003E-2,6.140000224E-1
7.893975114E0,-2.349999994E-1,1.110000014E-1,7.379999757E-1
7.898962814E0,-2.820000052E-1,1.630000025E-1,8.429999948E-1
7.903950506E0,-2.879999876E-1,2.090000063E-1,8.470000029E-1
7.908938198E0,-2.689999938E-1,2.380000055E-1,8.080000281E-1
7.913925980E0,-2.899999917E-1,2.649999857E-1,7.440000176E-1
7.918913674E0,-3.770000041E-1,2.919999957E-1,6.869999766E-1
7.923901366E0,-5.049999952E-1,3.449999988E-1,6.470000148E-1
7.928889292E0,-6.140000224E-1,4.040000141E-1,5.899999738E-1
7.933876987E0,-6.930000186E-1,4.629999995E-1,5.469999909E-1
7.938864665E0,-7.799999714E-1,5.009999871E-1,4.740000069E-1
7.943852357E0,-8.920000196E-1,5.170000196E-1,4.059999883E-1
7.948840021E0,-9.700000286E-1,5.289999843E-1,3.510000110E-1
7.953827788E0,-9.789999723E-1,5.279999971E-1,2.730000019E-1
7.958815491E0,-9.980000257E-1,4.860000014E-1,2.319999933E-1
7.963803183E0,-1.052999973E0,4.129999876E-1,2.890000045E-1
7.968791085E0,-1.133000016E0,3.440000117E-1,4.070000052E-1
7.973778780E0,-1.125000000E0,2.980000079E-1,5.249999762E-1
7.978766472E0,-1.027999997E0,2.380000055E-1,6.650000215E-1
7.983754186E0,-8.610000014E-1,1.749999970E-1,6.890000105E-1
7.988741804E0,-7.250000238E-1,7.900000364E-2,5.910000205E-1
7.993729576E0,-5.550000072E-1,-1.000000047E-3,4.839999974E-1
7.998717270E0,-3.829999864E-1,-5.600000173E-2,3.409999907E-1
8.003704963E0,-2.010000050E-1,-1.080000028E-1,3.059999943E-1
8.008692903E0,0.000000000E0,-1.459999979E-1,2.790000141E-1
8.013680597E0,1.360000074E-1,-1.889999956E-1,3.359999955E-1
8.018668289E0,2.290000021E-1,-1.949999928E-1,4.300000072E-1
8.023656057E0,2.919999957E-1,-2.189999968E-1,4.990000129E-1
8.028643737E0,3.280000091E-1,-2.669999897E-1,5.879999995E-1
8.033631429E0,2.960000038E-1,-2.939999998E-1,7.239999771E-1
8.038619112E0,2.599999905E-1,-3.199999928E-1,8.240000010E-1
8.043607033E0,2.689999938E-1,-3.420000076E-1,8.470000029E-1
8.048594732E0,2.730000019E-1,-3.289999962E-1,8.130000234E-1
8.053582424E0,2.660000026E-1,-3.149999976E-1,7.480000257E-1
8.058570192E0,2.010000050E-1,-2.899999917E-1,6.850000024E-1
8.063557881E0,1.529999971E-1,-2.549999952E-1,6.240000129E-1
8.068545573E0,1.860000044E-1,-2.129999995E-1,5.759999752E-1
8.073533285E0,2.230000049E-1,-1.550000012E-1,4.659999907E-1
8.078520977E0,2.419999987E-1,-1.199999973E-1,3.600000143E-1
8.083508898E0,2.160000056E-1,-8.500000089E-2,2.590000033E-1
8.088496573E0,1.840000004E-1,-4.300000146E-2,1.509999931E-1
8.093484266E0,1.969999969E-1,-2.300000004E-2,6.700000167E-2
8.098471972E0,2.189999968E-1,2.000000095E-3,-8.000000380E-3
8.103459664E0,2.460000068E-1,-3.000000026E-3,-1.600000076E-2
8.108447431E0,2.460000068E-1,-2.199999988E-2,-1.700000092E-2
8.113435126E0,2.370000035E-1,-3.400000185E-2,-2.099999972E-2
8.118422828E0,2.360000014E-1,-3.900000080E-2,-3.999999911E-2
8.123410749E0,2.310000062E-1,-3.900000080E-2,-8.699999750E-2
8.128398477E0,2.339999974E-1,-5.000000075E-2,-1.580000073E-1
8.133386170E0,2.639999986E-1,-5.700000003E-2,-2.520000041E-1
8.138373862E0,2.910000086E-1,-4.199999943E-2,-3.569999933E-1
8.143361629E0,3.230000138E-1,-1.799999923E-2,-4.810000062E-1
8.148349324E0,3.619999886E-1,2.500000037E-2,-6.430000067E-1
8.153337021E0,3.260000050E-1,7.500000298E-2,-8.529999852E-1
8.158324713E0,2.529999912E-1,1.389999986E-1,-1.024000049E0
8.163312634E0,1.909999996E-1,2.119999975E-1,-1.192000031E0
8.168300348E0,1.410000026E-1,2.709999979E-1,-1.317999959E0
8.173288040E0,1.199999973E-1,3.359999955E-1,-1.434999943E0
8.178275812E0,8.500000089E-2,3.910000026E-1,-1.496999979E0
8.183263507E0,4.699999839E-2,4.329999983E-1,-1.537999988E0
8.188251184E0,4.999999888E-3,4.499999881E-1,-1.536999941E0
8.193238876E0,-2.999999933E-2,4.539999962E-1,-1.490000010E0
8.198226797E0,-7.000000030E-2,4.429999888E-1,-1.389000058E0
8.203214497E0,-1.420000046E-1,4.239999950E-1,-1.245000005E0
8.208202189E0,-1.899999976E-1,4.020000100E-1,-1.013000011E0
8.213189900E0,-1.860000044E-1,3.619999886E-1,-7.630000114E-1
8.218177668E0,-1.679999977E-1,2.870000005E-1,-5.699999928E-1
8.223165362E0,-1.340000033E-1,2.160000056E-1,-3.910000026E-1
8.228153035E0,-5.000000075E-2,1.019999981E-1,-2.779999971E-1
8.233140956E0,6.100000069E-2,-6.000000052E-3,-1.529999971E-1
8.238128646E0,1.250000000E-1,-1.080000028E-1,4.699999839E-2
8.243116338E0,1.360000074E-1,-2.140000015E-1,2.269999981E-1
8.248104040E0,1.070000008E-1,-2.709999979E-1,4.250000119E-1
8.253091807E0,1.659999937E-1,-2.949999869E-1,6.100000143E-1
8.258079502E0,2.800000012E-1,-3.359999955E-1,7.139999866E-1
8.263067208E0,4.059999883E-1,-4.120000005E-1,6.779999733E-1
8.268055129E0,5.260000229E-1,-4.560000002E-1,6.110000014E-1
8.273042872E0,6.370000243E-1,-4.699999988E-1,4.850000143E-1
8.278030564E0,7.760000229E-1,-4.429999888E-1,3.190000057E-1
8.283018256E0,8.830000162E-1,-4.289999902E-1,1.840000004E-1
8.288005934E0,9.210000038E-1,-3.869999945E-1,-1.300000027E-2
8.292993702E0,9.279999733E-1,-3.459999859E-1,-2.230000049E-1
8.297981299E0,9.190000296E-1,-2.809999883E-1,-3.389999866E-1
8.302969066E0,8.460000157E-1,-2.360000014E-1,-4.320000112E-1
8.307956999E0,7.229999900E-1,-1.659999937E-1,-4.280000031E-1
8.312944463E0,6.179999709E-1,-9.600000083E-2,-3.919999897E-1
8.317932365E0,4.709999859E-1,-2.099999972E-2,-4.210000038E-1
8.322920059E0,3.479999900E-1,3.400000185E-2,-4.379999936E-1
8.327907742E0,2.419999987E-1,9.799999744E-2,-4.589999914E-1
8.332895509E0,1.439999938E-1,1.490000039E-1,-5.379999876E-1
8.337883203E0,5.000000075E-2,1.899999976E-1,-5.640000105E-1
8.342870905E0,-1.030000001E-1,2.150000036E-1,-5.550000072E-1
8.347858597E0,-1.990000010E-1,2.579999864E-1,-5.569999814E-1
8.352846514E0,-1.959999949E-1,3.059999943E-1,-5.429999828E-1
8.357834208E0,-1.829999983E-1,3.330000043E-1,-5.550000072E-1
8.362821901E0,-1.620000005E-1,3.449999988E-1,-5.429999828E-1
8.367809677E0,-1.309999973E-1,3.519999981E-1,-5.320000052E-1
8.372797371E0,-9.099999815E-2,3.560000062E-1,-5.040000081E-1
8.377785074E0,-4.199999943E-2,3.499999940E-1,-4.950000048E-1
8.382772766E0,-7.000000216E-3,3.370000124E-1,-4.420000017E-1
8.387760687E0,1.300000027E-2,3.039999902E-1,-2.790000141E-1
8.392748381E0,-8.000000380E-3,2.339999974E-1,-4.500000179E-2
8.397736074E0,-1.600000076E-2,1.700000018E-1,1.570000052E-1
8.402723766E0,1.899999939E-2,1.509999931E-1,3.650000095E-1
8.407711562E0,5.900000036E-2,1.490000039E-1,5.230000019E-1
8.412699256E0,4.899999872E-2,9.300000221E-2,6.909999847E-1
8.417686949E0,3.099999949E-2,7.400000095E-2,7.979999781E-1
8.422674870E0,6.499999762E-2,3.999999911E-2,8.450000286E-1
8.427662554E0,1.190000027E-1,7.000000216E-3,8.650000095E-1
8.432650247E0,1.640000045E-1,-4.999999888E-3,8.780000210E-1
8.437637939E0,1.829999983E-1,-2.899999917E-2,8.479999900E-1
8.442625612E0,2.150000036E-1,-3.099999949E-2,7.969999909E-1
8.447613379E0,2.579999864E-1,-1.700000092E-2,7.080000043E-1
8.452601059E0,3.000000119E-1,-1.300000027E-2,6.370000243E-1
8.457588751E0,3.630000055E-1,-3.000000026E-3,5.709999800E-1
8.462576672E0,4.359999895E-1,1.200000010E-2,4.970000088E-1
8.467564366E0,4.480000138E-1,1.300000027E-2,4.659999907E-1
8.472552059E0,4.079999924E-1,1.400000043E-2,4.650000036E-1
8.477539865E0,3.989999890E-1,9.999999776E-3,4.720000029E-1
8.482527559E0,4.460000098E-1,2.099999972E-2,4.690000117E-1
8.487515252E0,4.909999967E-1,3.799999878E-2,4.650000036E-1
8.492502944E0,4.749999940E-1,2.999999933E-2,4.449999928E-1
8.497490636E0,4.050000012E-1,1.999999955E-2,4.499999881E-1
8.502478576E0,3.409999907E-1,4.100000113E-2,4.729999900E-1
8.507466271E0,2.189999968E-1,5.900000036E-2,5.500000119E-1
8.512453963E0,6.199999899E-2,9.000000358E-2,7.350000143E-1
8.517441655E0,-9.700000286E-2,1.289999932E-1,9.269999862E-1
8.522429348E0,-2.269999981E-1,2.010000050E-1,1.129999995E0
8.527417105E0,-3.650000095E-1,2.300000042E-1,1.314000010E0
8.532404799E0,-4.990000129E-1,2.450000048E-1,1.399999976E0
8.537392492E0,-6.209999919E-1,2.469999939E-1,1.480000019E0
8.542380413E0,-6.830000281E-1,2.549999952E-1,1.529999971E0
8.547368098E0,-6.990000010E-1,2.520000041E-1,1.534999967E0
8.552355790E0,-7.570000291E-1,2.300000042E-1,1.501000047E0
8.557343558E0,-8.600000143E-1,2.280000001E-1,1.460000038E0
8.562331247E0,-9.620000124E-1,2.569999993E-1,1.402999997E0
8.567318939E0,-9.950000048E-1,2.939999998E-1,1.309999943E0
8.572306636E0,-1.014000058E0,3.079999983E-1,1.126999974E0
8.577294558E0,-1.001000047E0,3.280000091E-1,8.550000191E-1
8.582282242E0,-9.330000281E-1,3.470000029E-1,5.249999762E-1
8.587269934E0,-7.860000134E-1,3.499999940E-1,1.729999930E-1
8.592257701E0,-5.789999962E-1,3.179999888E-1,-1.330000013E-1
8.597245319E0,-3.729999959E-1,2.809999883E-1,-4.009999931E-1
8.602233086E0,-1.819999963E-1,1.959999949E-1,-5.889999866E-1
8.607221009E0,1.000000047E-3,9.600000083E-2,-6.110000014E-1
8.612208473E0,1.500000060E-1,-2.800000086E-2,-5.329999924E-1
8.617196394E0,2.540000081E-1,-1.260000020E-1,-4.180000126E-1
8.622184088E0,2.720000148E-1,-2.610000074E-1,-2.619999945E-1
8.627171780E0,2.870000005E-1,-3.829999864E-1,-1.330000013E-1
8.632159548E0,2.849999964E-1,-4.600000083E-1,-3.900000080E-2
8.637147242E0,2.770000100E-1,-5.090000033E-1,-1.999999955E-2
8.642134911E0,3.370000124E-1,-5.339999795E-1,-5.400000140E-2
8.647122604E0,3.980000019E-1,-5.569999814E-1,-1.620000005E-1
8.652110309E0,4.690000117E-1,-5.780000091E-1,-2.899999917E-1
8.657098230E0,5.210000277E-1,-5.749999881E-1,-4.269999862E-1
8.662085924E0,5.509999990E-1,-5.709999800E-1,-6.159999967E-1
8.667073613E0,4.860000014E-1,-5.350000262E-1,-7.699999809E-1
8.672061380E0,3.889999986E-1,-4.300000072E-1,-9.240000248E-1
8.677049074E0,3.030000031E-1,-3.059999943E-1,-1.098000050E0
8.682036767E0,2.249999940E-1,-1.829999983E-1,-1.297000051E0
8.687024697E0,1.040000021E-1,-8.699999750E-2,-1.504999995E0
8.692012391E0,-1.200000010E-2,6.000000052E-3,-1.680999994E0
8.697000083E0,-1.239999980E-1,9.499999881E-2,-1.761999965E0
8.701987748E0,-2.329999954E-1,1.809999943E-1,-1.789000034E0
8.706975440E0,-3.510000110E-1,2.829999924E-1,-1.758999944E0
8.711963207E0,-4.440000057E-1,3.470000029E-1,-1.746000051E0
8.716950902E0,-4.950000048E-1,4.040000141E-1,-1.692999959E0
8.721938579E0,-5.159999728E-1,4.239999950E-1,-1.605999947E0
8.726926271E0,-5.529999733E-1,4.219999909E-1,-1.486999989E0
8.731914192E0,-6.219999790E-1,3.950000107E-1,-1.300999999E0
8.736901887E0,-6.819999814E-1,3.729999959E-1,-1.055999994E0
8.741889579E0,-6.949999928E-1,3.269999921E-1,-7.889999747E-1
8.746877351E0,-6.690000296E-1,2.460000068E-1,-5.159999728E-1
8.751865045E0,-6.480000019E-1,1.469999999E-1,-2.619999945E-1
8.756852738E0,-6.330000162E-1,4.899999872E-2,-5.000000075E-2
8.761840430E0,-5.730000138E-1,-5.400000140E-2,1.330000013E-1
8.766828356E0,-4.850000143E-1,-1.560000032E-1,2.939999998E-1
8.771816050E0,-3.819999993E-1,-2.649999857E-1,3.939999938E-1
8.776803743E0,-2.460000068E-1,-3.950000107E-1,4.589999914E-1
8.781791435E0,-1.379999965E-1,-5.099999905E-1,5.490000248E-1
8.786779202E0,-4.100000113E-2,-6.090000272E-1,6.650000215E-1
8.791766911E0,6.400000304E-2,-6.610000134E-1,7.450000048E-1
8.796754603E0,2.210000008E-1,-6.819999814E-1,7.620000243E-1
8.801742529E0,3.880000114E-1,-6.930000186E-1,6.579999924E-1
8.806729993E0,5.249999762E-1,-7.170000076E-1,5.509999990E-1
8.811717919E0,6.250000000E-1,-7.120000124E-1,4.269999862E-1
8.816705613E0,7.350000143E-1,-6.759999990E-1,2.840000093E-1
8.821693305E0,8.100000024E-1,-6.290000081E-1,1.239999980E-1
8.826681082E0,8.190000057E-1,-6.349999905E-1,-3.799999878E-2
8.831668776E0,7.889999747E-1,-5.580000281E-1,-2.060000002E-1
8.836656472E0,7.900000215E-1,-4.769999981E-1,-4.140000045E-1
8.841644393E0,7.620000243E-1,-3.970000148E-1,-6.050000191E-1
8.846632088E0,7.239999771E-1,-3.269999921E-1,-7.689999938E-1
8.851619771E0,6.639999747E-1,-2.310000062E-1,-8.280000091E-1
8.856607538E0,5.849999785E-1,-1.790000051E-1,-9.020000100E-1
8.861595224E0,5.000000000E-1,-1.260000020E-1,-8.920000196E-1
8.866582916E0,3.750000000E-1,-7.599999756E-2,-8.029999733E-1
8.871570593E0,2.560000122E-1,-3.700000048E-2,-6.980000138E-1
8.876558286E0,1.620000005E-1,-1.099999994E-2,-5.699999928E-1
8.881546207E0,7.800000161E-2,2.700000070E-2,-4.600000083E-1
8.886533939E0,-2.800000086E-2,6.199999899E-2,-3.659999967E-1
8.891521631E0,-1.319999993E-1,8.399999887E-2,-2.960000038E-1
8.896509306E0,-2.240000069E-1,1.420000046E-1,-2.329999954E-1
8.901497073E0,-2.269999981E-1,1.860000044E-1,-1.400000006E-1
8.906484780E0,-2.220000029E-1,2.039999962E-1,-1.330000013E-1
8.911472472E0,-2.119999975E-1,2.249999940E-1,-1.599999964E-1
8.916460394E0,-2.210000008E-1,2.450000048E-1,-1.720000058E-1
8.921448078E0,-2.500000000E-1,2.739999890E-1,-1.449999958E-1
8.926435770E0,-2.549999952E-1,3.050000072E-1,-1.010000035E-1
8.931423542E0,-2.419999987E-1,3.479999900E-1,-1.030000001E-1
8.936411237E0,-2.129999995E-1,4.199999869E-1,-2.240000069E-1
8.941398924E0,-1.870000064E-1,4.539999962E-1,-3.079999983E-1
8.946386616E0,-1.749999970E-1,4.779999852E-1,-2.960000038E-1
8.951374324E0,-1.759999990E-1,4.709999859E-1,-1.940000057E-1
8.956362245E0,-1.829999983E-1,4.650000036E-1,-3.500000015E-2
8.961349939E0,-1.620000005E-1,4.420000017E-1,-1.400000043E-2
8.966337621E0,-1.350000054E-1,4.289999902E-1,-4.000000190E-3
8.971325314E0,-1.840000004E-1,3.889999986E-1,1.230000034E-1
8.976313006E0,-3.120000064E-1,3.400000036E-1,1.860000044E-1
8.981300759E0,-4.300000072E-1,3.210000098E-1,3.650000095E-1
8.986288454E0,-4.950000048E-1,3.070000112E-1,6.980000138E-1
8.991276126E0,-5.870000124E-1,3.050000072E-1,9.530000091E-1
8.996264047E0,-5.640000105E-1,3.070000112E-1,1.095999956E0
9.001251741E0,-4.850000143E-1,2.910000086E-1,1.358999968E0
9.006239425E0,-4.650000036E-1,1.909999996E-1,1.463999987E0
9.011227192E0,-4.480000138E-1,7.400000095E-2,1.126999974E0
9.016214876E0,-4.429999888E-1,7.599999756E-2,8.980000019E-1
9.021202569E0,-3.919999897E-1,1.010000035E-1,6.669999957E-1
9.026190242E0,-3.959999979E-1,8.900000155E-2,5.099999905E-1
9.031178163E0,-3.840000033E-1,1.280000061E-1,2.450000048E-1
9.036165857E0,-4.120000005E-1,1.940000057E-1,4.699999839E-2
9.041153559E0,-4.499999881E-1,2.529999912E-1,5.600000173E-2
9.046141326E0,-4.620000124E-1,2.899999917E-1,1.289999932E-1
9.051129030E0,-5.379999876E-1,2.739999890E-1,1.300000027E-2
9.056116722E0,-4.799999893E-1,2.460000068E-1,-7.800000161E-2
9.061104420E0,-4.050000012E-1,2.049999982E-1,9.700000286E-2
9.066092341E0,-3.659999967E-1,1.519999951E-1,3.459999859E-1
9.071080035E0,-2.540000081E-1,7.699999958E-2,5.139999986E-1
9.076067728E0,-9.799999744E-2,6.000000052E-3,5.989999771E-1
9.081055420E0,7.000000030E-2,-5.499999970E-2,6.000000238E-1
9.086043187E0,2.509999871E-1,-1.129999980E-1,6.620000005E-1
9.091030881E0,4.079999924E-1,-1.650000066E-1,6.650000215E-1
9.096018574E0,5.310000181E-1,-2.119999975E-1,6.869999766E-1
9.101006495E0,6.340000033E-1,-2.409999967E-1,7.620000243E-1
9.105994189E0,6.850000024E-1,-2.630000114E-1,8.510000110E-1
9.110981885E0,6.909999847E-1,-2.870000005E-1,1.039000034E0
9.115969578E0,6.560000181E-1,-3.179999888E-1,1.182000041E0
9.120957251E0,6.359999776E-1,-3.350000083E-1,1.297999978E0
9.125945018E0,5.929999948E-1,-3.400000036E-1,1.411000013E0
9.130932733E0,4.819999933E-1,-3.330000043E-1,1.498999953E0
9.135920425E0,3.280000091E-1,-3.300000131E-1,1.582000017E0
9.140908346E0,1.360000074E-1,-2.469999939E-1,1.634999990E0
9.145896021E0,-4.500000179E-2,-1.150000021E-1,1.629999995E0
9.150883714E0,-2.160000056E-1,1.300000027E-2,1.490000010E0
9.155871476E0,-4.120000005E-1,1.000000015E-1,1.281999946E0
9.160859170E0,-5.690000057E-1,1.410000026E-1,1.000000000E0
9.165846863E0,-6.679999828E-1,1.739999950E-1,7.220000029E-1
9.170834555E0,-6.970000267E-1,2.080000043E-1,4.990000129E-1
9.175822247E0,-6.880000234E-1,2.090000063E-1,2.969999909E-1
9.180809940E0,-6.320000291E-1,1.899999976E-1,1.040000021E-1
9.185797861E0,-5.479999781E-1,1.630000025E-1,-6.599999964E-2
9.190785560E0,-4.059999883E-1,1.089999974E-1,-2.169999927E-1
9.195773252E0,-2.269999981E-1,6.400000304E-2,-3.899999857E-1
9.200761020E0,-5.299999937E-2,4.999999888E-3,-5.820000172E-1
9.205748714E0,1.000000015E-1,-2.700000070E-2,-8.270000219E-1
9.210736411E0,2.099999934E-1,-6.199999899E-2,-1.085000038E0
9.215724332E0,2.739999890E-1,-7.100000232E-2,-1.320000052E0
9.220711796E0,3.160000145E-1,-5.200000107E-2,-1.509999990E0
9.225699717E0,3.260000050E-1,-4.800000042E-2,-1.667999983E0
9.230687406E0,3.449999988E-1,-1.300000027E-2,-1.815000057E0
9.235675099E0,3.260000050E-1,1.400000043E-2,-1.901999950E0
9.240662866E0,2.109999955E-1,2.800000086E-2,-1.937000036E0
9.245650555E0,9.600000083E-2,6.400000304E-2,-1.937999964E0
9.250638247E0,2.500000037E-2,1.319999993E-1,-1.894999981E0
9.255626159E0,-3.500000015E-2,1.589999944E-1,-1.822999954E0
9.260613854E0,-1.469999999E-1,1.749999970E-1,-1.718000054E0
9.265601565E0,-2.569999993E-1,1.879999936E-1,-1.593000054E0
9.270589257E0,-3.280000091E-1,2.189999968E-1,-1.449000001E0
9.275576950E0,-3.600000143E-1,2.269999981E-1,-1.299000025E0
9.280564717E0,-3.650000095E-1,2.450000048E-1,-1.171000004E0
9.285552411E0,-3.680000007E-1,1.840000004E-1,-1.031999946E0
9.290540128E0,-3.519999981E-1,9.200000018E-2,-8.320000172E-1
9.295528049E0,-2.849999964E-1,-2.000000095E-3,-5.920000076E-1
9.300515757E0,-1.959999949E-1,-8.200000226E-2,-4.180000126E-1
9.305503449E0,-1.469999999E-1,-1.809999943E-1,-1.829999983E-1
9.310491197E0,-1.000000015E-1,-2.610000074E-1,-7.800000161E-2
9.315478891E0,8.999999613E-3,-3.140000105E-1,2.099999972E-2
9.320466583E0,1.199999973E-1,-3.449999988E-1,1.089999974E-1
9.325454295E0,2.399999946E-1,-4.140000045E-1,1.220000014E-1
9.330442216E0,3.120000064E-1,-4.769999981E-1,1.560000032E-1
9.335429905E0,3.860000074E-1,-4.979999959E-1,1.799999923E-2
9.340417597E0,5.270000100E-1,-4.810000062E-1,6.800000370E-2
9.345405385E0,6.610000134E-1,-4.609999955E-1,-1.770000011E-1
9.350393079E0,8.019999862E-1,-4.510000050E-1,-2.790000141E-1
9.355380771E0,9.020000100E-1,-4.510000050E-1,-3.400000036E-1
9.360368478E0,1.006999969E0,-4.289999902E-1,-4.289999902E-1
9.365356170E0,1.059999943E0,-3.970000148E-1,-4.709999859E-1
9.370344091E0,1.080000043E0,-3.519999981E-1,-4.379999936E-1
9.375331785E0,1.042000055E0,-3.050000072E-1,-3.849999905E-1
9.380319478E0,9.520000219E-1,-2.569999993E-1,-4.129999876E-1
9.385307245E0,8.569999933E-1,-1.979999989E-1,-5.139999986E-1
9.390294939E0,7.659999728E-1,-8.699999750E-2,-6.159999967E-1
9.395282631E0,6.629999876E-1,-9.999999776E-3,-5.910000205E-1
9.400270324E0,5.419999957E-1,5.000000075E-2,-3.899999857E-1
9.405257997E0,3.970000148E-1,9.899999946E-2,-3.409999907E-1
9.410245918E0,2.919999957E-1,1.560000032E-1,-5.310000181E-1
9.415233607E0,1.589999944E-1,2.399999946E-1,-5.970000029E-1
9.420221300E0,8.100000024E-2,3.009999990E-1,-2.529999912E-1
9.425209081E0,1.300000027E-2,3.249999881E-1,-1.550000012E-1
9.430196698E0,-2.099999972E-2,3.650000095E-1,-3.899999857E-1
9.435184466E0,-4.600000009E-2,4.300000072E-1,-2.660000026E-1
9.440172155E0,-7.100000232E-2,4.399999976E-1,-3.500000015E-2
9.445159847E0,-8.699999750E-2,4.320000112E-1,-1.729999930E-1
9.450147778E0,-7.000000030E-2,4.390000105E-1,-1.999999955E-2
9.455135473E0,-5.000000075E-2,4.609999955E-1,7.199999690E-2
9.460123170E0,1.899999939E-2,4.810000062E-1,-3.440000117E-1
9.465110937E0,1.049999967E-1,5.019999743E-1,1.199999973E-1
9.470098622E0,1.299999952E-1,4.589999914E-1,2.969999909E-1
9.475086314E0,1.110000014E-1,3.670000136E-1,4.059999883E-1
9.480074235E0,4.500000179E-2,3.070000112E-1,6.620000005E-1
9.485061919E0,2.400000021E-2,3.009999990E-1,7.289999723E-1
9.490049612E0,4.199999943E-2,2.809999883E-1,9.160000086E-1
9.495037320E0,4.699999839E-2,2.319999933E-1,1.080999970E0
9.500025087E0,3.200000152E-2,1.669999957E-1,1.215999961E0
9.505012767E0,-4.000000190E-3,1.220000014E-1,1.213999987E0
9.510000459E0,3.799999878E-2,7.599999756E-2,1.233000040E0
9.514988151E0,9.000000358E-2,6.300000101E-2,1.281000018E0
9.519975868E0,9.099999815E-2,5.200000107E-2,1.210999966E0
9.524963789E0,2.999999933E-2,6.800000370E-2,1.159999967E0
9.529951464E0,-4.199999943E-2,6.400000304E-2,1.105999947E0
9.534939156E0,-7.000000030E-2,8.799999952E-2,1.052999973E0
9.539926923E0,-2.300000004E-2,1.500000060E-1,1.046000004E0
9.544914637E0,2.300000004E-2,1.990000010E-1,1.013000011E0
9.549902329E0,-3.099999949E-2,2.319999933E-1,9.440000057E-1
9.554890245E0,-1.280000061E-1,2.770000100E-1,8.679999709E-1
9.559877940E0,-1.480000019E-1,2.910000086E-1,8.320000172E-1
9.564865637E0,-1.410000026E-1,2.750000060E-1,8.209999800E-1
9.569853329E0,-1.529999971E-1,2.440000027E-1,9.150000215E-1
9.574841021E0,-1.819999963E-1,2.220000029E-1,1.042000055E0
9.579828789E0,-1.840000004E-1,1.780000031E-1,1.171000004E0
9.584816483E0,-1.790000051E-1,1.340000033E-1,1.401999950E0
9.589804175E0,-2.010000050E-1,8.799999952E-2,1.574000001E0
9.594792096E0,-2.240000069E-1,4.399999976E-2,1.562999964E0
9.599779791E0,-2.440000027E-1,2.700000070E-2,1.608999968E0
9.604767488E0,-2.529999912E-1,2.899999917E-2,1.611999989E0
9.609755180E0,-2.820000052E-1,3.099999949E-2,1.501000047E0
9.614742873E0,-3.330000043E-1,7.100000232E-2,1.358999968E0
9.619730640E0,-4.059999883E-1,1.410000026E-1,1.241000056E0
9.624718334E0,-4.589999914E-1,2.199999988E-1,1.026999950E0
9.629706027E0,-4.510000050E-1,3.100000024E-1,7.540000081E-1
9.634693948E0,-3.720000088E-1,3.950000107E-1,4.140000045E-1
9.639681622E0,-2.460000068E-1,4.499999881E-1,1.499999966E-2
9.644669314E0,-9.000000358E-2,4.250000119E-1,-4.160000086E-1
9.649657007E0,9.000000358E-2,3.740000129E-1,-7.659999728E-1
9.654644774E0,2.500000000E-1,3.449999988E-1,-1.070000052E0
9.659632459E0,3.650000095E-1,3.050000072E-1,-1.210000038E0
9.664620152E0,4.699999988E-1,2.440000027E-1,-1.266999960E0
9.669608068E0,5.519999862E-1,1.609999985E-1,-1.200999975E0
9.674595762E0,5.640000105E-1,6.300000101E-2,-1.088999987E0
9.679583454E0,5.239999890E-1,-4.800000042E-2,-8.619999886E-1
9.684571117E0,4.269999862E-1,-1.480000019E-1,-6.340000033E-1
9.689558884E0,3.260000050E-1,-2.329999954E-1,-3.459999859E-1
9.694546564E0,2.169999927E-1,-3.359999955E-1,-1.400000043E-2
9.699534256E0,1.580000073E-1,-4.289999902E-1,1.889999956E-1
9.704521929E0,8.399999887E-2,-5.270000100E-1,3.880000114E-1
9.709509850E0,-1.200000010E-2,-5.899999738E-1,5.389999747E-1
9.714497544E0,-9.799999744E-2,-6.039999723E-1,6.200000048E-1
9.719485237E0,-1.089999974E-1,-6.209999919E-1,6.359999776E-1
9.724473004E0,-4.899999872E-2,-6.250000000E-1,5.720000267E-1
9.729460679E0,4.399999976E-2,-6.320000291E-1,4.269999862E-1
9.734448371E0,1.480000019E-1,-6.150000095E-1,2.169999927E-1
9.739436088E0,2.300000042E-1,-5.950000286E-1,-5.499999970E-2
9.744423780E0,2.829999924E-1,-5.619999766E-1,-2.879999876E-1
9.749411701E0,2.779999971E-1,-5.130000114E-1,-5.109999776E-1
9.754399395E0,2.529999912E-1,-4.560000002E-1,-7.039999962E-1
9.759387088E0,1.720000058E-1,-3.899999857E-1,-8.640000224E-1
9.764374845E0,1.030000001E-1,-3.190000057E-1,-9.530000091E-1
9.769362539E0,4.800000042E-2,-2.610000074E-1,-1.032999992E0
9.774350252E0,0.000000000E0,-2.090000063E-1,-1.072999954E0
9.779338173E0,-1.140000001E-1,-1.729999930E-1,-1.077000022E0
9.784325640E0,-2.619999945E-1,-1.630000025E-1,-1.075999975E0
9.789313561E0,-3.989999890E-1,-1.250000000E-1,-1.082999945E0
9.794301256E0,-5.239999890E-1,-9.000000358E-2,-1.039999962E0
9.799288934E0,-6.620000005E-1,-5.099999905E-2,-9.969999790E-1
9.804276701E0,-7.749999762E-1,-3.900000080E-2,-9.720000029E-1
9.809264410E0,-8.669999838E-1,-2.099999972E-2,-8.980000019E-1
9.814252102E0,-9.139999747E-1,-2.000000095E-3,-7.910000086E-1
9.819239804E0,-9.319999814E-1,6.000000052E-3,-6.750000119E-1
9.824227497E0,-9.269999862E-1,0.000000000E0,-5.569999814E-1
9.829215418E0,-9.079999924E-1,-2.899999917E-2,-4.609999955E-1
9.834203112E0,-8.280000091E-1,-6.700000167E-2,-3.759999871E-1
9.839190804E0,-7.390000224E-1,-1.190000027E-1,-2.910000086E-1
9.844178507E0,-6.100000143E-1,-1.700000018E-1,-2.160000056E-1
9.849166274E0,-4.769999981E-1,-2.140000015E-1,-1.759999990E-1
9.854153963E0,-3.409999907E-1,-2.520000041E-1,-1.389999986E-1
9.859141655E0,-2.109999955E-1,-2.930000126E-1,-1.669999957E-1
9.864129607E0,-1.099999994E-1,-3.490000069E-1,-2.080000043E-1
9.869117301E0,-3.200000152E-2,-4.140000045E-1,-2.770000100E-1
9.874104993E0,9.200000018E-2,-4.460000098E-1,-3.000000119E-1
9.879092719E0,2.119999975E-1,-4.499999881E-1,-3.440000117E-1
9.884080486E0,3.199999928E-1,-4.869999886E-1,-4.009999931E-1
9.889068180E0,4.670000076E-1,-4.790000021E-1,-4.760000110E-1
9.894055872E0,5.979999900E-1,-4.639999866E-1,-5.839999914E-1
9.899043570E0,6.869999766E-1,-4.239999950E-1,-6.970000267E-1
9.904031491E0,7.160000205E-1,-4.180000126E-1,-7.369999886E-1
9.909019185E0,7.179999948E-1,-3.750000000E-1,-7.580000162E-1
9.914006877E0,7.139999866E-1,-3.280000091E-1,-7.500000000E-1
9.918994570E0,6.980000138E-1,-2.820000052E-1,-7.189999819E-1
9.923982351E0,6.620000005E-1,-2.349999994E-1,-7.210000157E-1
9.928970045E0,6.230000257E-1,-1.990000010E-1,-6.779999733E-1
9.933957724E0,5.500000119E-1,-1.650000066E-1,-6.510000229E-1
9.938945645E0,4.860000014E-1,-1.199999973E-1,-6.209999919E-1
9.943933349E0,4.309999943E-1,-8.900000155E-2,-5.540000200E-1
9.948921041E0,3.499999940E-1,-5.000000075E-2,-5.159999728E-1
9.953908734E0,2.630000114E-1,-1.099999994E-2,-4.280000031E-1
9.958896491E0,1.739999950E-1,2.899999917E-2,-2.890000045E-1
9.963884185E0,7.199999690E-2,9.399999678E-2,-2.210000008E-1
9.968871873E0,4.800000042E-2,1.509999931E-1,-2.109999955E-1
9.973859794E0,4.800000042E-2,1.819999963E-1,-2.000000030E-1
9.978847272E0,4.000000190E-3,1.990000010E-1,-1.539999992E-1
9.983835193E0,-1.169999987E-1,2.280000001E-1,-5.600000173E-2
9.988822964E0,-1.889999956E-1,2.800000012E-1,6.000000052E-3
9.993810579E0,-2.010000050E-1,3.449999988E-1,4.500000179E-2
9.998798342E0,-1.909999996E-1,3.829999864E-1,3.799999878E-2
1.000378604E1,-2.259999961E-1,3.910000026E-1,5.700000003E-2
